SpectraSuite Data File
++++++++++++++++++++++++++++++++++++
Date: Mon Jun 15 08:04:07 PDT 2015
User: introlabs
Dark Spectrum Present: Yes
Reference Spectrum Present: Yes
Number of Sampled Component Spectra: 1
Spectrometers: USB4H08886
Integration Time (usec): 44366 (USB4H08886)
Spectra Averaged: 20 (USB4H08886)
Boxcar Smoothing: 5 (USB4H08886)
Correct for Electrical Dark: Yes (USB4H08886)
Strobe/Lamp Enabled: No (USB4H08886)
Correct for Detector Non-linearity: Yes (USB4H08886)
Correct for Stray Light: Yes (USB4H08886)
Number of Pixels in Processed Spectrum: 3648
>>>>>Begin Processed Spectral Data<<<<<
178.14	0.110
178.36	0.110
178.57	0.110
178.79	0.325
179.01	-1.144
179.22	-0.108
179.44	-0.496
179.65	-0.000
179.87	-0.000
180.08	0.863
180.30	0.506
180.52	-0.000
180.73	0.603
180.95	0.313
181.16	0.095
181.38	0.039
181.59	0.042
181.81	0.028
182.03	0.023
182.24	0.035
182.46	0.036
182.67	0.035
182.89	0.034
183.10	0.030
183.32	0.020
183.54	0.009
183.75	0.016
183.97	0.018
184.18	0.013
184.40	0.015
184.61	0.011
184.83	0.010
185.04	0.001
185.26	0.003
185.48	0.004
185.69	0.007
185.91	0.022
186.12	0.013
186.34	0.018
186.55	0.010
186.77	0.007
186.98	0.005
187.20	0.000
187.42	0.007
187.63	0.007
187.85	0.005
188.06	0.006
188.28	0.001
188.49	0.009
188.71	0.001
188.92	0.007
189.14	0.000
189.36	0.003
189.57	0.004
189.79	0.003
190.00	-0.001
190.22	-0.006
190.43	-0.007
190.65	-0.013
190.86	-0.014
191.08	-0.013
191.29	-0.011
191.51	-0.005
191.72	-0.007
191.94	-0.004
192.16	-0.007
192.37	-0.009
192.59	-0.001
192.80	-0.002
193.02	0.005
193.23	0.011
193.45	0.011
193.66	0.006
193.88	0.006
194.09	0.005
194.31	0.000
194.52	0.004
194.74	0.002
194.95	0.003
195.17	0.009
195.38	-0.000
195.60	-0.011
195.81	-0.008
196.03	-0.004
196.25	0.003
196.46	0.008
196.68	0.007
196.89	0.006
197.11	0.013
197.32	0.004
197.54	-0.005
197.75	0.017
197.97	0.024
198.18	0.018
198.40	0.021
198.61	0.003
198.83	-0.002
199.04	0.003
199.26	-0.005
199.47	-0.017
199.69	-0.002
199.90	0.012
200.12	0.004
200.33	0.003
200.55	0.005
200.76	-0.003
200.98	0.005
201.19	0.004
201.41	-0.001
201.62	0.007
201.84	0.018
202.05	0.012
202.27	0.008
202.48	0.000
202.70	0.001
202.91	0.003
203.13	0.005
203.34	0.001
203.56	0.002
203.77	0.007
203.99	-0.002
204.20	-0.010
204.42	-0.014
204.63	-0.017
204.85	-0.013
205.06	-0.012
205.28	-0.013
205.49	-0.012
205.71	-0.002
205.92	0.004
206.14	-0.001
206.35	0.009
206.56	0.021
206.78	0.016
206.99	0.017
207.21	0.018
207.42	0.016
207.64	0.015
207.85	0.016
208.07	0.013
208.28	0.014
208.50	0.023
208.71	0.023
208.93	0.021
209.14	0.032
209.36	0.033
209.57	0.033
209.79	0.036
210.00	0.036
210.22	0.038
210.43	0.033
210.64	0.027
210.86	0.020
211.07	0.016
211.29	0.013
211.50	0.008
211.72	0.005
211.93	-0.001
212.15	-0.003
212.36	-0.005
212.58	-0.007
212.79	-0.001
213.01	-0.005
213.22	-0.002
213.43	-0.000
213.65	0.000
213.86	0.000
214.08	0.008
214.29	0.012
214.51	0.012
214.72	0.014
214.94	0.009
215.15	0.008
215.36	0.011
215.58	0.008
215.79	0.006
216.01	0.009
216.22	0.009
216.44	0.000
216.65	0.001
216.87	0.002
217.08	0.003
217.29	0.013
217.51	0.014
217.72	0.012
217.94	0.015
218.15	0.021
218.37	0.012
218.58	0.007
218.80	0.016
219.01	0.009
219.22	0.003
219.44	0.004
219.65	0.003
219.87	0.002
220.08	0.003
220.30	-0.005
220.51	-0.014
220.72	-0.012
220.94	-0.014
221.15	-0.018
221.37	-0.016
221.58	-0.013
221.79	-0.011
222.01	-0.022
222.22	-0.025
222.44	-0.029
222.65	-0.025
222.87	-0.023
223.08	-0.018
223.29	-0.017
223.51	-0.019
223.72	-0.017
223.94	-0.020
224.15	-0.019
224.36	-0.014
224.58	-0.015
224.79	-0.009
225.01	-0.009
225.22	-0.010
225.44	-0.013
225.65	-0.009
225.86	-0.008
226.08	-0.007
226.29	-0.005
226.51	-0.006
226.72	-0.003
226.93	0.001
227.15	-0.004
227.36	-0.004
227.58	-0.002
227.79	0.002
228.00	-0.001
228.22	-0.006
228.43	-0.010
228.65	-0.009
228.86	-0.010
229.07	-0.012
229.29	-0.017
229.50	-0.019
229.72	-0.016
229.93	-0.017
230.14	-0.018
230.36	-0.016
230.57	-0.014
230.78	-0.017
231.00	-0.020
231.21	-0.026
231.43	-0.025
231.64	-0.024
231.85	-0.021
232.07	-0.023
232.28	-0.023
232.50	-0.025
232.71	-0.026
232.92	-0.025
233.14	-0.023
233.35	-0.021
233.56	-0.018
233.78	-0.020
233.99	-0.020
234.21	-0.021
234.42	-0.021
234.63	-0.021
234.85	-0.021
235.06	-0.021
235.27	-0.021
235.49	-0.021
235.70	-0.021
235.91	-0.023
236.13	-0.022
236.34	-0.025
236.56	-0.026
236.77	-0.025
236.98	-0.025
237.20	-0.026
237.41	-0.025
237.62	-0.024
237.84	-0.024
238.05	-0.023
238.26	-0.022
238.48	-0.022
238.69	-0.019
238.91	-0.019
239.12	-0.020
239.33	-0.019
239.55	-0.018
239.76	-0.018
239.97	-0.018
240.19	-0.018
240.40	-0.018
240.61	-0.018
240.83	-0.018
241.04	-0.018
241.25	-0.018
241.47	-0.017
241.68	-0.016
241.89	-0.016
242.11	-0.015
242.32	-0.015
242.53	-0.015
242.75	-0.015
242.96	-0.014
243.17	-0.013
243.39	-0.013
243.60	-0.012
243.81	-0.012
244.03	-0.013
244.24	-0.013
244.45	-0.012
244.67	-0.012
244.88	-0.011
245.09	-0.010
245.31	-0.010
245.52	-0.010
245.73	-0.010
245.95	-0.009
246.16	-0.009
246.37	-0.009
246.59	-0.009
246.80	-0.009
247.01	-0.009
247.23	-0.009
247.44	-0.009
247.65	-0.009
247.87	-0.008
248.08	-0.008
248.29	-0.008
248.51	-0.008
248.72	-0.008
248.93	-0.007
249.15	-0.007
249.36	-0.007
249.57	-0.007
249.78	-0.007
250.00	-0.007
250.21	-0.007
250.42	-0.007
250.64	-0.006
250.85	-0.006
251.06	-0.006
251.28	-0.006
251.49	-0.005
251.70	-0.005
251.92	-0.005
252.13	-0.004
252.34	-0.004
252.55	-0.004
252.77	-0.004
252.98	-0.004
253.19	-0.004
253.41	-0.004
253.62	-0.003
253.83	-0.003
254.05	-0.003
254.26	-0.003
254.47	-0.003
254.68	-0.004
254.90	-0.003
255.11	-0.003
255.32	-0.003
255.54	-0.003
255.75	-0.003
255.96	-0.003
256.17	-0.003
256.39	-0.003
256.60	-0.003
256.81	-0.003
257.03	-0.003
257.24	-0.002
257.45	-0.003
257.66	-0.003
257.88	-0.003
258.09	-0.003
258.30	-0.003
258.51	-0.003
258.73	-0.003
258.94	-0.003
259.15	-0.003
259.37	-0.003
259.58	-0.004
259.79	-0.004
260.00	-0.003
260.22	-0.003
260.43	-0.003
260.64	-0.004
260.85	-0.004
261.07	-0.004
261.28	-0.004
261.49	-0.004
261.71	-0.004
261.92	-0.004
262.13	-0.004
262.34	-0.004
262.56	-0.004
262.77	-0.004
262.98	-0.004
263.19	-0.004
263.41	-0.004
263.62	-0.004
263.83	-0.005
264.04	-0.005
264.26	-0.005
264.47	-0.005
264.68	-0.005
264.89	-0.005
265.11	-0.005
265.32	-0.005
265.53	-0.005
265.74	-0.005
265.96	-0.005
266.17	-0.005
266.38	-0.005
266.59	-0.005
266.81	-0.004
267.02	-0.004
267.23	-0.005
267.44	-0.005
267.65	-0.006
267.87	-0.006
268.08	-0.006
268.29	-0.006
268.50	-0.006
268.72	-0.006
268.93	-0.006
269.14	-0.006
269.35	-0.006
269.57	-0.007
269.78	-0.007
269.99	-0.007
270.20	-0.007
270.41	-0.007
270.63	-0.007
270.84	-0.007
271.05	-0.007
271.26	-0.007
271.48	-0.007
271.69	-0.008
271.90	-0.007
272.11	-0.008
272.32	-0.008
272.54	-0.008
272.75	-0.008
272.96	-0.008
273.17	-0.008
273.39	-0.008
273.60	-0.008
273.81	-0.008
274.02	-0.008
274.23	-0.008
274.45	-0.008
274.66	-0.008
274.87	-0.008
275.08	-0.008
275.29	-0.008
275.51	-0.008
275.72	-0.008
275.93	-0.009
276.14	-0.008
276.35	-0.008
276.57	-0.008
276.78	-0.009
276.99	-0.009
277.20	-0.008
277.41	-0.008
277.63	-0.008
277.84	-0.008
278.05	-0.009
278.26	-0.008
278.47	-0.009
278.69	-0.008
278.90	-0.008
279.11	-0.008
279.32	-0.007
279.53	-0.007
279.74	-0.007
279.96	-0.007
280.17	-0.007
280.38	-0.007
280.59	-0.007
280.80	-0.007
281.02	-0.007
281.23	-0.007
281.44	-0.007
281.65	-0.007
281.86	-0.007
282.07	-0.007
282.29	-0.006
282.50	-0.006
282.71	-0.006
282.92	-0.006
283.13	-0.006
283.35	-0.006
283.56	-0.006
283.77	-0.006
283.98	-0.006
284.19	-0.006
284.40	-0.005
284.62	-0.005
284.83	-0.006
285.04	-0.005
285.25	-0.005
285.46	-0.005
285.67	-0.004
285.88	-0.004
286.10	-0.004
286.31	-0.003
286.52	-0.003
286.73	-0.002
286.94	-0.002
287.15	-0.001
287.37	-0.001
287.58	-0.001
287.79	-0.001
288.00	-0.000
288.21	0.000
288.42	0.001
288.63	0.001
288.85	0.001
289.06	0.001
289.27	0.002
289.48	0.002
289.69	0.002
289.90	0.002
290.11	0.002
290.33	0.003
290.54	0.003
290.75	0.003
290.96	0.003
291.17	0.003
291.38	0.003
291.59	0.004
291.81	0.004
292.02	0.004
292.23	0.004
292.44	0.004
292.65	0.004
292.86	0.004
293.07	0.004
293.28	0.004
293.50	0.005
293.71	0.005
293.92	0.005
294.13	0.005
294.34	0.005
294.55	0.005
294.76	0.005
294.97	0.005
295.19	0.006
295.40	0.006
295.61	0.005
295.82	0.005
296.03	0.005
296.24	0.006
296.45	0.005
296.66	0.005
296.87	0.005
297.09	0.005
297.30	0.005
297.51	0.005
297.72	0.005
297.93	0.005
298.14	0.006
298.35	0.006
298.56	0.006
298.77	0.006
298.99	0.006
299.20	0.006
299.41	0.006
299.62	0.006
299.83	0.006
300.04	0.006
300.25	0.006
300.46	0.006
300.67	0.006
300.88	0.006
301.10	0.006
301.31	0.006
301.52	0.006
301.73	0.006
301.94	0.006
302.15	0.006
302.36	0.006
302.57	0.006
302.78	0.006
302.99	0.006
303.20	0.006
303.41	0.006
303.63	0.006
303.84	0.006
304.05	0.006
304.26	0.006
304.47	0.006
304.68	0.006
304.89	0.006
305.10	0.006
305.31	0.006
305.52	0.006
305.73	0.006
305.94	0.006
306.15	0.006
306.37	0.007
306.58	0.007
306.79	0.007
307.00	0.007
307.21	0.007
307.42	0.007
307.63	0.007
307.84	0.007
308.05	0.007
308.26	0.007
308.47	0.007
308.68	0.007
308.89	0.007
309.10	0.007
309.31	0.007
309.52	0.007
309.73	0.007
309.95	0.007
310.16	0.007
310.37	0.007
310.58	0.007
310.79	0.007
311.00	0.007
311.21	0.007
311.42	0.007
311.63	0.007
311.84	0.007
312.05	0.007
312.26	0.007
312.47	0.007
312.68	0.007
312.89	0.007
313.10	0.007
313.31	0.007
313.52	0.007
313.73	0.007
313.94	0.007
314.15	0.007
314.36	0.008
314.57	0.008
314.78	0.008
314.99	0.007
315.21	0.007
315.42	0.007
315.63	0.007
315.84	0.007
316.05	0.007
316.26	0.007
316.47	0.007
316.68	0.007
316.89	0.007
317.10	0.007
317.31	0.007
317.52	0.007
317.73	0.007
317.94	0.007
318.15	0.007
318.36	0.007
318.57	0.007
318.78	0.007
318.99	0.007
319.20	0.008
319.41	0.008
319.62	0.008
319.83	0.008
320.04	0.008
320.25	0.008
320.46	0.008
320.67	0.008
320.88	0.008
321.09	0.008
321.30	0.008
321.51	0.008
321.72	0.007
321.93	0.007
322.14	0.007
322.35	0.007
322.56	0.007
322.77	0.007
322.98	0.008
323.19	0.008
323.40	0.008
323.61	0.008
323.82	0.008
324.03	0.008
324.24	0.008
324.45	0.008
324.66	0.008
324.87	0.007
325.08	0.008
325.29	0.007
325.50	0.007
325.71	0.007
325.92	0.007
326.13	0.007
326.34	0.007
326.55	0.007
326.76	0.007
326.97	0.007
327.18	0.007
327.39	0.007
327.60	0.007
327.80	0.007
328.01	0.007
328.22	0.007
328.43	0.007
328.64	0.007
328.85	0.007
329.06	0.007
329.27	0.007
329.48	0.007
329.69	0.007
329.90	0.007
330.11	0.007
330.32	0.007
330.53	0.007
330.74	0.007
330.95	0.007
331.16	0.007
331.37	0.007
331.58	0.007
331.79	0.007
332.00	0.007
332.21	0.007
332.42	0.007
332.63	0.007
332.83	0.007
333.04	0.007
333.25	0.007
333.46	0.007
333.67	0.007
333.88	0.007
334.09	0.007
334.30	0.007
334.51	0.007
334.72	0.007
334.93	0.007
335.14	0.007
335.35	0.007
335.56	0.007
335.77	0.007
335.98	0.007
336.18	0.007
336.39	0.007
336.60	0.007
336.81	0.007
337.02	0.007
337.23	0.007
337.44	0.006
337.65	0.006
337.86	0.006
338.07	0.006
338.28	0.006
338.49	0.006
338.70	0.006
338.91	0.006
339.11	0.006
339.32	0.006
339.53	0.006
339.74	0.006
339.95	0.006
340.16	0.006
340.37	0.006
340.58	0.006
340.79	0.006
341.00	0.006
341.21	0.006
341.41	0.006
341.62	0.005
341.83	0.005
342.04	0.005
342.25	0.005
342.46	0.005
342.67	0.005
342.88	0.005
343.09	0.005
343.30	0.005
343.50	0.005
343.71	0.005
343.92	0.005
344.13	0.005
344.34	0.005
344.55	0.005
344.76	0.005
344.97	0.005
345.18	0.005
345.38	0.005
345.59	0.005
345.80	0.005
346.01	0.005
346.22	0.005
346.43	0.005
346.64	0.005
346.85	0.005
347.06	0.005
347.26	0.005
347.47	0.005
347.68	0.005
347.89	0.005
348.10	0.005
348.31	0.005
348.52	0.005
348.73	0.004
348.93	0.005
349.14	0.004
349.35	0.004
349.56	0.004
349.77	0.004
349.98	0.004
350.19	0.004
350.39	0.004
350.60	0.004
350.81	0.004
351.02	0.004
351.23	0.004
351.44	0.004
351.65	0.004
351.86	0.004
352.06	0.004
352.27	0.004
352.48	0.004
352.69	0.004
352.90	0.004
353.11	0.004
353.31	0.004
353.52	0.004
353.73	0.004
353.94	0.004
354.15	0.004
354.36	0.004
354.57	0.004
354.77	0.004
354.98	0.004
355.19	0.004
355.40	0.004
355.61	0.004
355.82	0.004
356.02	0.004
356.23	0.004
356.44	0.004
356.65	0.004
356.86	0.004
357.07	0.004
357.27	0.004
357.48	0.004
357.69	0.004
357.90	0.004
358.11	0.004
358.32	0.004
358.52	0.004
358.73	0.004
358.94	0.003
359.15	0.003
359.36	0.004
359.56	0.003
359.77	0.004
359.98	0.004
360.19	0.004
360.40	0.004
360.61	0.004
360.81	0.004
361.02	0.004
361.23	0.004
361.44	0.004
361.65	0.004
361.85	0.004
362.06	0.004
362.27	0.004
362.48	0.004
362.69	0.004
362.89	0.003
363.10	0.003
363.31	0.003
363.52	0.003
363.73	0.003
363.93	0.003
364.14	0.003
364.35	0.003
364.56	0.003
364.77	0.003
364.97	0.003
365.18	0.003
365.39	0.003
365.60	0.003
365.81	0.003
366.01	0.003
366.22	0.003
366.43	0.003
366.64	0.003
366.84	0.003
367.05	0.003
367.26	0.003
367.47	0.003
367.68	0.003
367.88	0.003
368.09	0.003
368.30	0.003
368.51	0.003
368.71	0.003
368.92	0.003
369.13	0.003
369.34	0.003
369.55	0.003
369.75	0.003
369.96	0.003
370.17	0.003
370.38	0.003
370.58	0.003
370.79	0.003
371.00	0.003
371.21	0.003
371.41	0.003
371.62	0.003
371.83	0.003
372.04	0.003
372.24	0.003
372.45	0.003
372.66	0.003
372.87	0.003
373.07	0.003
373.28	0.003
373.49	0.003
373.70	0.003
373.90	0.003
374.11	0.003
374.32	0.002
374.53	0.002
374.73	0.002
374.94	0.002
375.15	0.003
375.36	0.003
375.56	0.003
375.77	0.003
375.98	0.003
376.19	0.003
376.39	0.003
376.60	0.003
376.81	0.003
377.02	0.003
377.22	0.003
377.43	0.003
377.64	0.002
377.84	0.002
378.05	0.003
378.26	0.002
378.47	0.002
378.67	0.003
378.88	0.003
379.09	0.003
379.30	0.002
379.50	0.002
379.71	0.002
379.92	0.002
380.12	0.002
380.33	0.002
380.54	0.003
380.75	0.002
380.95	0.002
381.16	0.002
381.37	0.002
381.57	0.002
381.78	0.002
381.99	0.002
382.20	0.002
382.40	0.002
382.61	0.002
382.82	0.002
383.02	0.002
383.23	0.003
383.44	0.003
383.64	0.003
383.85	0.003
384.06	0.003
384.27	0.003
384.47	0.003
384.68	0.002
384.89	0.002
385.09	0.002
385.30	0.002
385.51	0.002
385.71	0.002
385.92	0.002
386.13	0.002
386.33	0.002
386.54	0.002
386.75	0.002
386.95	0.002
387.16	0.002
387.37	0.002
387.58	0.002
387.78	0.002
387.99	0.002
388.20	0.002
388.40	0.002
388.61	0.002
388.82	0.002
389.02	0.002
389.23	0.002
389.44	0.002
389.64	0.002
389.85	0.002
390.06	0.002
390.26	0.002
390.47	0.002
390.68	0.002
390.88	0.002
391.09	0.002
391.30	0.002
391.50	0.002
391.71	0.002
391.92	0.002
392.12	0.002
392.33	0.002
392.53	0.002
392.74	0.002
392.95	0.002
393.15	0.002
393.36	0.002
393.57	0.002
393.77	0.002
393.98	0.002
394.19	0.002
394.39	0.002
394.60	0.002
394.81	0.002
395.01	0.002
395.22	0.002
395.43	0.002
395.63	0.002
395.84	0.002
396.04	0.002
396.25	0.002
396.46	0.002
396.66	0.002
396.87	0.002
397.08	0.002
397.28	0.002
397.49	0.002
397.69	0.002
397.90	0.002
398.11	0.002
398.31	0.002
398.52	0.002
398.73	0.002
398.93	0.002
399.14	0.002
399.34	0.002
399.55	0.002
399.76	0.001
399.96	0.002
400.17	0.002
400.37	0.002
400.58	0.002
400.79	0.002
400.99	0.002
401.20	0.002
401.41	0.002
401.61	0.002
401.82	0.002
402.02	0.002
402.23	0.002
402.44	0.002
402.64	0.002
402.85	0.002
403.05	0.002
403.26	0.002
403.47	0.002
403.67	0.002
403.88	0.002
404.08	0.002
404.29	0.002
404.50	0.002
404.70	0.002
404.91	0.002
405.11	0.002
405.32	0.002
405.52	0.002
405.73	0.001
405.94	0.001
406.14	0.001
406.35	0.001
406.55	0.001
406.76	0.001
406.97	0.001
407.17	0.001
407.38	0.001
407.58	0.001
407.79	0.001
407.99	0.001
408.20	0.001
408.41	0.001
408.61	0.001
408.82	0.001
409.02	0.001
409.23	0.001
409.43	0.001
409.64	0.001
409.84	0.001
410.05	0.001
410.26	0.001
410.46	0.002
410.67	0.001
410.87	0.001
411.08	0.001
411.28	0.001
411.49	0.001
411.69	0.001
411.90	0.001
412.11	0.001
412.31	0.001
412.52	0.001
412.72	0.001
412.93	0.001
413.13	0.001
413.34	0.001
413.54	0.001
413.75	0.001
413.95	0.001
414.16	0.001
414.37	0.001
414.57	0.001
414.78	0.001
414.98	0.001
415.19	0.001
415.39	0.001
415.60	0.001
415.80	0.001
416.01	0.001
416.21	0.001
416.42	0.001
416.62	0.001
416.83	0.001
417.03	0.001
417.24	0.001
417.44	0.001
417.65	0.001
417.86	0.001
418.06	0.001
418.27	0.001
418.47	0.001
418.68	0.001
418.88	0.001
419.09	0.001
419.29	0.001
419.50	0.001
419.70	0.001
419.91	0.001
420.11	0.001
420.32	0.001
420.52	0.001
420.73	0.001
420.93	0.001
421.14	0.001
421.34	0.001
421.55	0.001
421.75	0.001
421.96	0.001
422.16	0.001
422.37	0.001
422.57	0.001
422.78	0.001
422.98	0.001
423.19	0.001
423.39	0.001
423.60	0.001
423.80	0.001
424.01	0.001
424.21	0.001
424.42	0.001
424.62	0.001
424.83	0.001
425.03	0.001
425.23	0.001
425.44	0.001
425.64	0.001
425.85	0.001
426.05	0.001
426.26	0.001
426.46	0.001
426.67	0.001
426.87	0.001
427.08	0.001
427.28	0.001
427.49	0.001
427.69	0.001
427.90	0.001
428.10	0.001
428.31	0.001
428.51	0.001
428.71	0.001
428.92	0.001
429.12	0.001
429.33	0.001
429.53	0.001
429.74	0.001
429.94	0.001
430.15	0.001
430.35	0.001
430.56	0.001
430.76	0.001
430.96	0.001
431.17	0.001
431.37	0.001
431.58	0.001
431.78	0.001
431.99	0.001
432.19	0.001
432.40	0.001
432.60	0.001
432.80	0.001
433.01	0.001
433.21	0.001
433.42	0.001
433.62	0.001
433.83	0.001
434.03	0.001
434.23	0.001
434.44	0.001
434.64	0.001
434.85	0.001
435.05	0.001
435.26	0.001
435.46	0.001
435.66	0.001
435.87	0.001
436.07	0.001
436.28	0.001
436.48	0.001
436.69	0.001
436.89	0.001
437.09	0.001
437.30	0.001
437.50	0.001
437.71	0.001
437.91	0.001
438.11	0.001
438.32	0.001
438.52	0.001
438.73	0.001
438.93	0.001
439.13	0.001
439.34	0.001
439.54	0.001
439.75	0.001
439.95	0.001
440.15	0.001
440.36	0.001
440.56	0.001
440.77	0.001
440.97	0.001
441.17	0.001
441.38	0.001
441.58	0.001
441.79	0.001
441.99	0.001
442.19	0.001
442.40	0.001
442.60	0.001
442.81	0.001
443.01	0.001
443.21	0.001
443.42	0.001
443.62	0.001
443.82	0.001
444.03	0.001
444.23	0.001
444.44	0.001
444.64	0.001
444.84	0.001
445.05	0.001
445.25	0.001
445.45	0.001
445.66	0.001
445.86	0.001
446.06	0.001
446.27	0.001
446.47	0.001
446.68	0.001
446.88	0.001
447.08	0.001
447.29	0.001
447.49	0.001
447.69	0.001
447.90	0.001
448.10	0.001
448.30	0.001
448.51	0.001
448.71	0.001
448.91	0.001
449.12	0.001
449.32	0.001
449.52	0.001
449.73	0.001
449.93	0.001
450.14	0.001
450.34	0.001
450.54	0.001
450.75	0.001
450.95	0.001
451.15	0.001
451.36	0.001
451.56	0.001
451.76	0.001
451.97	0.001
452.17	0.001
452.37	0.000
452.58	0.001
452.78	0.001
452.98	0.001
453.19	0.001
453.39	0.001
453.59	0.001
453.79	0.001
454.00	0.001
454.20	0.001
454.40	0.001
454.61	0.001
454.81	0.001
455.01	0.000
455.22	0.000
455.42	0.000
455.62	0.000
455.83	0.000
456.03	0.000
456.23	0.000
456.44	0.000
456.64	0.000
456.84	0.001
457.04	0.001
457.25	0.001
457.45	0.000
457.65	0.000
457.86	0.000
458.06	0.001
458.26	0.000
458.47	0.001
458.67	0.001
458.87	0.000
459.07	0.000
459.28	0.000
459.48	0.000
459.68	0.001
459.89	0.001
460.09	0.001
460.29	0.000
460.49	0.000
460.70	0.000
460.90	0.001
461.10	0.001
461.31	0.001
461.51	0.001
461.71	0.001
461.91	0.001
462.12	0.001
462.32	0.001
462.52	0.001
462.72	0.001
462.93	0.001
463.13	0.001
463.33	0.001
463.53	0.001
463.74	0.001
463.94	0.001
464.14	0.001
464.35	0.001
464.55	0.001
464.75	0.001
464.95	0.000
465.16	0.000
465.36	0.000
465.56	0.001
465.76	0.001
465.97	0.000
466.17	0.000
466.37	0.000
466.57	0.000
466.78	0.000
466.98	0.000
467.18	0.001
467.38	0.000
467.59	0.000
467.79	0.000
467.99	0.000
468.19	0.000
468.39	0.000
468.60	0.000
468.80	0.000
469.00	0.000
469.20	0.001
469.41	0.001
469.61	0.001
469.81	0.001
470.01	0.000
470.22	0.001
470.42	0.000
470.62	0.001
470.82	0.000
471.02	0.001
471.23	0.001
471.43	0.001
471.63	0.001
471.83	0.001
472.04	0.001
472.24	0.001
472.44	0.000
472.64	0.000
472.84	0.000
473.05	0.000
473.25	0.000
473.45	0.000
473.65	0.000
473.85	0.000
474.06	0.000
474.26	0.000
474.46	0.000
474.66	0.001
474.86	0.001
475.07	0.001
475.27	0.001
475.47	0.001
475.67	0.001
475.87	0.001
476.08	0.001
476.28	0.001
476.48	0.001
476.68	0.001
476.88	0.001
477.09	0.001
477.29	0.001
477.49	0.001
477.69	0.001
477.89	0.000
478.09	0.000
478.30	0.000
478.50	0.000
478.70	0.000
478.90	0.000
479.10	0.000
479.31	0.000
479.51	0.000
479.71	0.000
479.91	0.000
480.11	0.000
480.31	0.001
480.52	0.001
480.72	0.001
480.92	0.001
481.12	0.001
481.32	0.001
481.52	0.001
481.72	0.000
481.93	0.000
482.13	0.000
482.33	0.000
482.53	0.000
482.73	0.000
482.93	0.000
483.14	0.000
483.34	0.000
483.54	0.000
483.74	0.000
483.94	0.000
484.14	0.000
484.34	0.000
484.55	0.000
484.75	0.000
484.95	0.000
485.15	0.000
485.35	0.000
485.55	0.000
485.75	0.000
485.96	0.000
486.16	0.000
486.36	0.000
486.56	-0.000
486.76	0.000
486.96	0.000
487.16	0.000
487.36	0.000
487.57	0.000
487.77	0.000
487.97	-0.000
488.17	-0.000
488.37	-0.000
488.57	0.000
488.77	0.000
488.97	0.000
489.18	0.000
489.38	0.000
489.58	0.000
489.78	0.000
489.98	0.000
490.18	0.000
490.38	0.001
490.58	0.000
490.78	0.000
490.98	0.000
491.19	0.000
491.39	0.000
491.59	0.000
491.79	0.000
491.99	0.000
492.19	0.000
492.39	0.000
492.59	0.000
492.79	0.000
492.99	0.000
493.20	0.000
493.40	0.000
493.60	0.000
493.80	0.000
494.00	0.000
494.20	0.000
494.40	0.000
494.60	0.000
494.80	0.000
495.00	0.000
495.20	0.000
495.40	0.000
495.61	0.000
495.81	0.000
496.01	0.000
496.21	0.000
496.41	0.000
496.61	0.001
496.81	0.001
497.01	0.001
497.21	0.001
497.41	0.001
497.61	0.001
497.81	0.001
498.01	0.001
498.21	0.001
498.41	0.001
498.61	0.001
498.82	0.000
499.02	0.000
499.22	0.000
499.42	0.000
499.62	0.000
499.82	0.000
500.02	0.000
500.22	0.000
500.42	0.000
500.62	0.000
500.82	0.000
501.02	0.000
501.22	0.000
501.42	0.000
501.62	0.000
501.82	0.000
502.02	0.000
502.22	0.000
502.42	0.000
502.62	0.000
502.82	0.000
503.02	0.000
503.22	0.000
503.42	0.000
503.63	0.000
503.83	0.000
504.03	0.000
504.23	0.000
504.43	0.000
504.63	0.000
504.83	0.000
505.03	0.000
505.23	0.000
505.43	0.001
505.63	0.000
505.83	0.001
506.03	0.000
506.23	0.001
506.43	0.001
506.63	0.001
506.83	0.000
507.03	0.001
507.23	0.000
507.43	0.000
507.63	0.000
507.83	0.000
508.03	0.000
508.23	0.000
508.43	0.000
508.63	0.000
508.83	0.001
509.03	0.001
509.23	0.001
509.43	0.001
509.63	0.001
509.83	0.001
510.03	0.001
510.23	0.001
510.43	0.001
510.63	0.001
510.83	0.001
511.03	0.000
511.23	0.000
511.43	0.000
511.63	0.000
511.83	0.000
512.03	0.000
512.22	0.000
512.42	0.000
512.62	0.000
512.82	0.000
513.02	0.000
513.22	0.000
513.42	0.000
513.62	0.000
513.82	0.001
514.02	0.001
514.22	0.001
514.42	0.001
514.62	0.001
514.82	0.001
515.02	0.001
515.22	0.001
515.42	0.000
515.62	0.000
515.82	0.000
516.02	0.000
516.22	0.000
516.42	0.000
516.62	0.001
516.82	0.000
517.01	0.001
517.21	0.001
517.41	0.001
517.61	0.001
517.81	0.001
518.01	0.001
518.21	0.001
518.41	0.001
518.61	0.001
518.81	0.001
519.01	0.001
519.21	0.001
519.41	0.001
519.61	0.001
519.81	0.000
520.00	0.000
520.20	0.001
520.40	0.000
520.60	0.001
520.80	0.000
521.00	0.000
521.20	0.000
521.40	0.000
521.60	0.001
521.80	0.001
522.00	0.001
522.20	0.001
522.39	0.001
522.59	0.001
522.79	0.000
522.99	0.000
523.19	0.000
523.39	0.000
523.59	0.001
523.79	0.000
523.99	0.000
524.19	0.000
524.38	0.000
524.58	0.000
524.78	0.001
524.98	0.001
525.18	0.001
525.38	0.001
525.58	0.001
525.78	0.001
525.98	0.001
526.18	0.000
526.37	0.000
526.57	0.000
526.77	0.000
526.97	0.000
527.17	0.000
527.37	0.001
527.57	0.000
527.77	0.000
527.96	0.000
528.16	0.000
528.36	0.000
528.56	0.001
528.76	0.001
528.96	0.000
529.16	0.000
529.36	0.000
529.55	0.000
529.75	0.000
529.95	0.000
530.15	0.001
530.35	0.001
530.55	0.001
530.75	0.001
530.94	0.001
531.14	0.001
531.34	0.001
531.54	0.001
531.74	0.001
531.94	0.001
532.13	0.001
532.33	0.000
532.53	0.000
532.73	0.000
532.93	0.000
533.13	0.001
533.33	0.000
533.52	0.000
533.72	0.001
533.92	0.001
534.12	0.001
534.32	0.001
534.52	0.001
534.71	0.001
534.91	0.001
535.11	0.001
535.31	0.001
535.51	0.001
535.71	0.001
535.90	0.001
536.10	0.001
536.30	0.001
536.50	0.001
536.70	0.001
536.89	0.001
537.09	0.001
537.29	0.001
537.49	0.001
537.69	0.001
537.89	0.001
538.08	0.001
538.28	0.001
538.48	0.001
538.68	0.001
538.88	0.001
539.07	0.001
539.27	0.001
539.47	0.001
539.67	0.001
539.87	0.001
540.06	0.001
540.26	0.001
540.46	0.001
540.66	0.001
540.86	0.001
541.05	0.001
541.25	0.001
541.45	0.001
541.65	0.001
541.84	0.001
542.04	0.001
542.24	0.001
542.44	0.001
542.64	0.001
542.83	0.000
543.03	0.000
543.23	0.000
543.43	0.000
543.62	0.000
543.82	0.000
544.02	0.000
544.22	0.000
544.42	0.000
544.61	0.000
544.81	0.000
545.01	0.000
545.21	0.000
545.40	0.000
545.60	0.000
545.80	0.000
546.00	0.000
546.19	0.000
546.39	0.000
546.59	0.000
546.79	0.000
546.98	0.000
547.18	0.001
547.38	0.001
547.58	0.001
547.77	0.000
547.97	0.000
548.17	0.000
548.37	0.000
548.56	0.000
548.76	0.000
548.96	0.000
549.16	0.001
549.35	0.001
549.55	0.001
549.75	0.001
549.95	0.001
550.14	0.001
550.34	0.001
550.54	0.001
550.73	0.001
550.93	0.001
551.13	0.001
551.33	0.001
551.52	0.000
551.72	0.000
551.92	0.001
552.12	0.001
552.31	0.001
552.51	0.001
552.71	0.001
552.90	0.001
553.10	0.001
553.30	0.001
553.50	0.001
553.69	0.001
553.89	0.001
554.09	0.001
554.28	0.001
554.48	0.001
554.68	0.001
554.87	0.001
555.07	0.001
555.27	0.001
555.47	0.001
555.66	0.001
555.86	0.001
556.06	0.001
556.25	0.001
556.45	0.001
556.65	0.001
556.84	0.001
557.04	0.001
557.24	0.001
557.43	0.001
557.63	0.001
557.83	0.001
558.02	0.001
558.22	0.001
558.42	0.001
558.61	0.001
558.81	0.000
559.01	0.000
559.21	0.001
559.40	0.000
559.60	0.000
559.80	0.000
559.99	0.000
560.19	0.000
560.39	0.000
560.58	0.001
560.78	0.000
560.97	0.001
561.17	0.000
561.37	0.000
561.56	0.001
561.76	0.001
561.96	0.001
562.15	0.001
562.35	0.001
562.55	0.001
562.74	0.001
562.94	0.001
563.14	0.001
563.33	0.001
563.53	0.001
563.73	0.000
563.92	0.000
564.12	0.001
564.31	0.001
564.51	0.001
564.71	0.000
564.90	0.001
565.10	0.001
565.30	0.001
565.49	0.001
565.69	0.001
565.89	0.001
566.08	0.001
566.28	0.001
566.47	0.001
566.67	0.001
566.87	0.001
567.06	0.001
567.26	0.001
567.46	0.001
567.65	0.001
567.85	0.000
568.04	0.000
568.24	0.000
568.44	0.000
568.63	0.000
568.83	0.000
569.02	0.000
569.22	0.000
569.42	0.000
569.61	0.001
569.81	0.000
570.00	0.001
570.20	0.001
570.40	0.001
570.59	0.001
570.79	0.001
570.98	0.001
571.18	0.001
571.38	0.000
571.57	0.000
571.77	0.000
571.96	0.000
572.16	0.000
572.35	0.001
572.55	0.000
572.75	0.000
572.94	0.000
573.14	0.001
573.33	0.001
573.53	0.001
573.73	0.001
573.92	0.001
574.12	0.001
574.31	0.000
574.51	0.000
574.70	0.000
574.90	0.000
575.09	0.000
575.29	0.000
575.49	0.000
575.68	0.000
575.88	0.000
576.07	0.000
576.27	0.000
576.46	0.000
576.66	0.000
576.86	0.000
577.05	0.000
577.25	0.000
577.44	0.000
577.64	0.000
577.83	0.000
578.03	0.000
578.22	0.000
578.42	0.000
578.61	0.000
578.81	0.000
579.00	0.000
579.20	0.000
579.40	0.000
579.59	0.000
579.79	0.000
579.98	0.000
580.18	0.000
580.37	0.000
580.57	0.000
580.76	0.000
580.96	0.000
581.15	0.000
581.35	0.000
581.54	0.000
581.74	0.000
581.93	0.000
582.13	0.000
582.32	0.000
582.52	0.000
582.71	0.000
582.91	0.000
583.10	0.000
583.30	0.000
583.49	0.000
583.69	0.000
583.88	0.000
584.08	0.000
584.27	0.000
584.47	0.000
584.66	0.000
584.86	0.000
585.05	0.000
585.25	0.000
585.44	0.000
585.64	0.000
585.83	0.000
586.03	0.000
586.22	0.000
586.42	0.000
586.61	0.000
586.81	0.000
587.00	0.000
587.20	0.000
587.39	0.000
587.59	0.000
587.78	0.000
587.98	0.000
588.17	0.000
588.37	0.001
588.56	0.001
588.76	0.001
588.95	0.000
589.15	0.000
589.34	0.000
589.54	0.000
589.73	0.000
589.92	0.000
590.12	0.000
590.31	0.000
590.51	0.000
590.70	0.000
590.90	0.000
591.09	0.000
591.29	0.000
591.48	0.000
591.68	0.000
591.87	0.000
592.06	0.000
592.26	0.000
592.45	0.000
592.65	0.000
592.84	0.000
593.04	0.000
593.23	0.000
593.43	0.001
593.62	0.001
593.81	0.001
594.01	0.001
594.20	0.001
594.40	0.001
594.59	0.001
594.79	0.001
594.98	0.001
595.17	0.001
595.37	0.001
595.56	0.001
595.76	0.001
595.95	0.001
596.14	0.000
596.34	0.000
596.53	0.000
596.73	0.000
596.92	0.000
597.12	0.000
597.31	0.000
597.50	0.000
597.70	0.000
597.89	0.000
598.09	0.000
598.28	0.000
598.47	0.000
598.67	0.000
598.86	0.000
599.06	0.000
599.25	0.000
599.44	0.000
599.64	0.000
599.83	0.000
600.03	0.000
600.22	0.000
600.41	0.000
600.61	0.000
600.80	0.001
601.00	0.001
601.19	0.001
601.38	0.001
601.58	0.001
601.77	0.001
601.96	0.001
602.16	0.001
602.35	0.001
602.55	0.001
602.74	0.001
602.93	0.001
603.13	0.001
603.32	0.001
603.51	0.001
603.71	0.001
603.90	0.001
604.09	0.000
604.29	0.000
604.48	0.000
604.68	0.000
604.87	0.000
605.06	0.000
605.26	0.000
605.45	0.000
605.64	0.000
605.84	0.000
606.03	0.000
606.22	0.000
606.42	0.000
606.61	0.000
606.80	0.000
607.00	0.000
607.19	0.000
607.38	0.000
607.58	0.000
607.77	0.000
607.96	0.000
608.16	0.001
608.35	0.001
608.54	0.001
608.74	0.001
608.93	0.001
609.12	0.001
609.32	0.001
609.51	0.001
609.70	0.001
609.90	0.001
610.09	0.001
610.28	0.001
610.48	0.001
610.67	0.001
610.86	0.001
611.06	0.001
611.25	0.001
611.44	0.001
611.64	0.001
611.83	0.001
612.02	0.001
612.21	0.001
612.41	0.000
612.60	0.001
612.79	0.001
612.99	0.001
613.18	0.001
613.37	0.001
613.57	0.001
613.76	0.001
613.95	0.001
614.14	0.001
614.34	0.001
614.53	0.001
614.72	0.001
614.92	0.001
615.11	0.001
615.30	0.001
615.49	0.001
615.69	0.001
615.88	0.001
616.07	0.001
616.26	0.001
616.46	0.001
616.65	0.001
616.84	0.001
617.04	0.001
617.23	0.001
617.42	0.001
617.61	0.001
617.81	0.001
618.00	0.001
618.19	0.001
618.38	0.001
618.58	0.001
618.77	0.001
618.96	0.001
619.15	0.001
619.35	0.001
619.54	0.001
619.73	0.001
619.92	0.001
620.12	0.001
620.31	0.001
620.50	0.001
620.69	0.001
620.89	0.001
621.08	0.001
621.27	0.001
621.46	0.001
621.66	0.001
621.85	0.001
622.04	0.001
622.23	0.001
622.43	0.001
622.62	0.001
622.81	0.001
623.00	0.001
623.19	0.001
623.39	0.001
623.58	0.001
623.77	0.001
623.96	0.001
624.16	0.001
624.35	0.001
624.54	0.001
624.73	0.001
624.92	0.001
625.12	0.001
625.31	0.001
625.50	0.001
625.69	0.001
625.88	0.001
626.08	0.001
626.27	0.001
626.46	0.001
626.65	0.001
626.84	0.001
627.04	0.001
627.23	0.001
627.42	0.001
627.61	0.001
627.80	0.001
628.00	0.001
628.19	0.001
628.38	0.001
628.57	0.001
628.76	0.001
628.96	0.001
629.15	0.001
629.34	0.001
629.53	0.001
629.72	0.001
629.91	0.001
630.11	0.001
630.30	0.001
630.49	0.001
630.68	0.002
630.87	0.002
631.06	0.002
631.26	0.002
631.45	0.002
631.64	0.002
631.83	0.002
632.02	0.002
632.21	0.002
632.41	0.002
632.60	0.002
632.79	0.002
632.98	0.002
633.17	0.002
633.36	0.001
633.55	0.001
633.75	0.001
633.94	0.001
634.13	0.001
634.32	0.001
634.51	0.001
634.70	0.001
634.89	0.001
635.09	0.001
635.28	0.001
635.47	0.001
635.66	0.001
635.85	0.002
636.04	0.002
636.23	0.002
636.43	0.002
636.62	0.002
636.81	0.002
637.00	0.002
637.19	0.002
637.38	0.002
637.57	0.002
637.76	0.002
637.95	0.002
638.15	0.002
638.34	0.002
638.53	0.002
638.72	0.002
638.91	0.002
639.10	0.002
639.29	0.002
639.48	0.002
639.67	0.002
639.87	0.002
640.06	0.002
640.25	0.002
640.44	0.002
640.63	0.002
640.82	0.002
641.01	0.002
641.20	0.002
641.39	0.002
641.58	0.002
641.78	0.002
641.97	0.002
642.16	0.002
642.35	0.002
642.54	0.002
642.73	0.002
642.92	0.002
643.11	0.002
643.30	0.002
643.49	0.001
643.68	0.001
643.87	0.001
644.06	0.001
644.25	0.001
644.45	0.001
644.64	0.001
644.83	0.002
645.02	0.002
645.21	0.002
645.40	0.002
645.59	0.002
645.78	0.002
645.97	0.002
646.16	0.002
646.35	0.001
646.54	0.001
646.73	0.001
646.92	0.001
647.11	0.001
647.30	0.001
647.49	0.001
647.68	0.001
647.88	0.001
648.07	0.001
648.26	0.001
648.45	0.002
648.64	0.002
648.83	0.001
649.02	0.001
649.21	0.002
649.40	0.002
649.59	0.002
649.78	0.002
649.97	0.001
650.16	0.001
650.35	0.001
650.54	0.002
650.73	0.002
650.92	0.002
651.11	0.002
651.30	0.002
651.49	0.002
651.68	0.002
651.87	0.002
652.06	0.002
652.25	0.002
652.44	0.002
652.63	0.002
652.82	0.001
653.01	0.001
653.20	0.001
653.39	0.001
653.58	0.001
653.77	0.001
653.96	0.001
654.15	0.001
654.34	0.001
654.53	0.001
654.72	0.001
654.91	0.001
655.10	0.001
655.29	0.001
655.48	0.001
655.67	0.001
655.86	0.001
656.05	0.001
656.24	0.001
656.43	0.001
656.62	0.001
656.81	0.001
657.00	0.001
657.19	0.001
657.38	0.001
657.57	0.001
657.76	0.001
657.95	0.002
658.14	0.002
658.33	0.002
658.51	0.002
658.70	0.002
658.89	0.002
659.08	0.002
659.27	0.002
659.46	0.002
659.65	0.002
659.84	0.002
660.03	0.002
660.22	0.002
660.41	0.002
660.60	0.002
660.79	0.002
660.98	0.002
661.17	0.002
661.36	0.002
661.55	0.002
661.74	0.002
661.92	0.002
662.11	0.002
662.30	0.002
662.49	0.002
662.68	0.001
662.87	0.001
663.06	0.002
663.25	0.002
663.44	0.002
663.63	0.002
663.82	0.002
664.01	0.002
664.20	0.002
664.38	0.002
664.57	0.002
664.76	0.002
664.95	0.002
665.14	0.002
665.33	0.002
665.52	0.002
665.71	0.002
665.90	0.002
666.09	0.001
666.28	0.001
666.46	0.001
666.65	0.001
666.84	0.002
667.03	0.002
667.22	0.002
667.41	0.002
667.60	0.002
667.79	0.002
667.98	0.001
668.16	0.001
668.35	0.001
668.54	0.001
668.73	0.002
668.92	0.002
669.11	0.002
669.30	0.002
669.49	0.002
669.67	0.002
669.86	0.002
670.05	0.002
670.24	0.002
670.43	0.002
670.62	0.002
670.81	0.002
671.00	0.002
671.18	0.002
671.37	0.002
671.56	0.002
671.75	0.001
671.94	0.001
672.13	0.001
672.32	0.001
672.50	0.002
672.69	0.002
672.88	0.001
673.07	0.002
673.26	0.002
673.45	0.002
673.63	0.002
673.82	0.002
674.01	0.002
674.20	0.002
674.39	0.002
674.58	0.002
674.76	0.002
674.95	0.002
675.14	0.002
675.33	0.002
675.52	0.002
675.71	0.002
675.89	0.001
676.08	0.002
676.27	0.002
676.46	0.002
676.65	0.002
676.84	0.002
677.02	0.002
677.21	0.002
677.40	0.002
677.59	0.002
677.78	0.002
677.96	0.002
678.15	0.002
678.34	0.002
678.53	0.002
678.72	0.002
678.90	0.002
679.09	0.002
679.28	0.002
679.47	0.002
679.66	0.002
679.84	0.002
680.03	0.002
680.22	0.002
680.41	0.001
680.60	0.001
680.78	0.001
680.97	0.002
681.16	0.001
681.35	0.001
681.53	0.001
681.72	0.001
681.91	0.001
682.10	0.001
682.29	0.001
682.47	0.001
682.66	0.001
682.85	0.001
683.04	0.001
683.22	0.001
683.41	0.002
683.60	0.002
683.79	0.002
683.97	0.002
684.16	0.002
684.35	0.002
684.54	0.002
684.72	0.002
684.91	0.002
685.10	0.001
685.29	0.002
685.47	0.001
685.66	0.001
685.85	0.001
686.04	0.001
686.22	0.001
686.41	0.001
686.60	0.001
686.79	0.001
686.97	0.001
687.16	0.001
687.35	0.001
687.54	0.001
687.72	0.001
687.91	0.002
688.10	0.002
688.29	0.001
688.47	0.001
688.66	0.001
688.85	0.002
689.03	0.002
689.22	0.002
689.41	0.002
689.60	0.002
689.78	0.002
689.97	0.002
690.16	0.002
690.34	0.002
690.53	0.002
690.72	0.002
690.91	0.002
691.09	0.002
691.28	0.002
691.47	0.002
691.65	0.002
691.84	0.002
692.03	0.002
692.21	0.002
692.40	0.002
692.59	0.002
692.77	0.002
692.96	0.002
693.15	0.002
693.34	0.002
693.52	0.002
693.71	0.002
693.90	0.001
694.08	0.001
694.27	0.001
694.46	0.001
694.64	0.001
694.83	0.001
695.02	0.001
695.20	0.001
695.39	0.001
695.58	0.001
695.76	0.001
695.95	0.001
696.14	0.001
696.32	0.001
696.51	0.001
696.70	0.001
696.88	0.001
697.07	0.001
697.26	0.001
697.44	0.001
697.63	0.001
697.81	0.002
698.00	0.002
698.19	0.002
698.37	0.002
698.56	0.002
698.75	0.002
698.93	0.002
699.12	0.002
699.31	0.002
699.49	0.002
699.68	0.002
699.87	0.002
700.05	0.002
700.24	0.002
700.42	0.002
700.61	0.002
700.80	0.002
700.98	0.002
701.17	0.002
701.36	0.002
701.54	0.002
701.73	0.002
701.91	0.002
702.10	0.002
702.29	0.002
702.47	0.002
702.66	0.002
702.84	0.002
703.03	0.002
703.22	0.002
703.40	0.002
703.59	0.002
703.77	0.002
703.96	0.002
704.15	0.002
704.33	0.002
704.52	0.002
704.70	0.002
704.89	0.002
705.08	0.002
705.26	0.002
705.45	0.002
705.63	0.002
705.82	0.002
706.00	0.002
706.19	0.002
706.38	0.002
706.56	0.002
706.75	0.002
706.93	0.002
707.12	0.002
707.30	0.002
707.49	0.002
707.68	0.002
707.86	0.001
708.05	0.001
708.23	0.001
708.42	0.002
708.60	0.002
708.79	0.001
708.98	0.002
709.16	0.001
709.35	0.001
709.53	0.001
709.72	0.002
709.90	0.002
710.09	0.002
710.27	0.002
710.46	0.002
710.64	0.002
710.83	0.002
711.02	0.002
711.20	0.002
711.39	0.002
711.57	0.002
711.76	0.002
711.94	0.002
712.13	0.002
712.31	0.002
712.50	0.002
712.68	0.002
712.87	0.002
713.05	0.002
713.24	0.002
713.42	0.002
713.61	0.002
713.79	0.002
713.98	0.002
714.16	0.002
714.35	0.002
714.54	0.002
714.72	0.002
714.91	0.002
715.09	0.002
715.28	0.002
715.46	0.002
715.65	0.002
715.83	0.002
716.02	0.002
716.20	0.002
716.39	0.002
716.57	0.002
716.76	0.002
716.94	0.002
717.12	0.002
717.31	0.002
717.49	0.002
717.68	0.002
717.86	0.002
718.05	0.001
718.23	0.002
718.42	0.002
718.60	0.002
718.79	0.001
718.97	0.001
719.16	0.001
719.34	0.002
719.53	0.002
719.71	0.001
719.90	0.002
720.08	0.002
720.27	0.002
720.45	0.002
720.63	0.001
720.82	0.002
721.00	0.002
721.19	0.002
721.37	0.002
721.56	0.002
721.74	0.002
721.93	0.002
722.11	0.002
722.30	0.002
722.48	0.002
722.66	0.002
722.85	0.002
723.03	0.002
723.22	0.002
723.40	0.002
723.59	0.002
723.77	0.002
723.95	0.002
724.14	0.002
724.32	0.002
724.51	0.002
724.69	0.002
724.88	0.002
725.06	0.002
725.24	0.002
725.43	0.002
725.61	0.002
725.80	0.001
725.98	0.001
726.16	0.001
726.35	0.001
726.53	0.001
726.72	0.001
726.90	0.001
727.09	0.001
727.27	0.001
727.45	0.001
727.64	0.001
727.82	0.002
728.01	0.002
728.19	0.002
728.37	0.002
728.56	0.002
728.74	0.002
728.92	0.002
729.11	0.002
729.29	0.002
729.48	0.002
729.66	0.002
729.84	0.002
730.03	0.001
730.21	0.001
730.40	0.001
730.58	0.002
730.76	0.001
730.95	0.002
731.13	0.001
731.31	0.001
731.50	0.001
731.68	0.002
731.86	0.002
732.05	0.002
732.23	0.002
732.42	0.002
732.60	0.002
732.78	0.002
732.97	0.002
733.15	0.002
733.33	0.002
733.52	0.001
733.70	0.001
733.88	0.001
734.07	0.001
734.25	0.000
734.43	0.000
734.62	0.000
734.80	0.000
734.98	-0.000
735.17	0.000
735.35	0.000
735.53	0.000
735.72	0.000
735.90	0.000
736.08	0.001
736.27	0.001
736.45	0.001
736.63	0.001
736.82	0.001
737.00	0.001
737.18	0.001
737.37	0.001
737.55	0.001
737.73	0.001
737.92	0.000
738.10	-0.000
738.28	-0.000
738.46	0.000
738.65	-0.000
738.83	-0.001
739.01	-0.001
739.20	-0.001
739.38	-0.000
739.56	0.000
739.75	0.000
739.93	0.000
740.11	0.001
740.29	0.001
740.48	0.001
740.66	0.002
740.84	0.002
741.03	0.002
741.21	0.003
741.39	0.003
741.57	0.003
741.76	0.002
741.94	0.002
742.12	0.002
742.31	0.002
742.49	0.002
742.67	0.002
742.85	0.002
743.04	0.002
743.22	0.002
743.40	0.001
743.58	0.001
743.77	0.002
743.95	0.002
744.13	0.002
744.31	0.002
744.50	0.001
744.68	0.001
744.86	0.001
745.04	0.002
745.23	0.001
745.41	0.001
745.59	0.001
745.77	0.001
745.96	0.001
746.14	0.001
746.32	0.001
746.50	0.002
746.69	0.002
746.87	0.002
747.05	0.002
747.23	0.001
747.42	0.002
747.60	0.002
747.78	0.002
747.96	0.002
748.14	0.003
748.33	0.003
748.51	0.003
748.69	0.003
748.87	0.003
749.06	0.003
749.24	0.004
749.42	0.003
749.60	0.003
749.78	0.002
749.97	0.002
750.15	0.002
750.33	0.002
750.51	0.002
750.69	0.002
750.88	0.001
751.06	0.001
751.24	0.001
751.42	0.001
751.60	0.001
751.79	0.002
751.97	0.002
752.15	0.002
752.33	0.001
752.51	0.000
752.69	0.000
752.88	0.001
753.06	0.002
753.24	0.001
753.42	0.001
753.60	0.002
753.78	0.002
753.97	0.002
754.15	0.002
754.33	0.002
754.51	0.003
754.69	0.003
754.87	0.003
755.06	0.002
755.24	0.002
755.42	0.003
755.60	0.002
755.78	0.002
755.96	0.002
756.15	0.001
756.33	0.002
756.51	0.002
756.69	0.002
756.87	0.002
757.05	0.002
757.23	0.002
757.42	0.001
757.60	0.001
757.78	0.001
757.96	0.001
758.14	0.001
758.32	0.001
758.50	0.001
758.69	0.002
758.87	0.001
759.05	0.002
759.23	0.002
759.41	0.002
759.59	0.002
759.77	0.002
759.95	0.002
760.13	0.002
760.32	0.002
760.50	0.003
760.68	0.003
760.86	0.003
761.04	0.003
761.22	0.003
761.40	0.003
761.58	0.003
761.76	0.002
761.95	0.002
762.13	0.002
762.31	0.002
762.49	0.002
762.67	0.001
762.85	0.001
763.03	0.001
763.21	0.001
763.39	0.001
763.57	0.001
763.75	0.001
763.94	0.002
764.12	0.001
764.30	0.001
764.48	0.001
764.66	0.001
764.84	0.001
765.02	0.001
765.20	0.001
765.38	0.001
765.56	0.001
765.74	0.001
765.92	0.001
766.10	0.001
766.28	0.001
766.46	0.001
766.65	0.002
766.83	0.002
767.01	0.001
767.19	0.002
767.37	0.001
767.55	0.002
767.73	0.002
767.91	0.001
768.09	0.001
768.27	0.001
768.45	0.001
768.63	0.001
768.81	0.001
768.99	0.001
769.17	0.001
769.35	0.002
769.53	0.001
769.71	0.002
769.89	0.002
770.07	0.003
770.25	0.002
770.43	0.002
770.61	0.002
770.79	0.002
770.97	0.002
771.15	0.002
771.33	0.002
771.51	0.002
771.69	0.002
771.87	0.002
772.05	0.001
772.24	0.001
772.42	0.001
772.60	0.002
772.78	0.002
772.96	0.003
773.14	0.003
773.32	0.002
773.49	0.002
773.67	0.002
773.85	0.002
774.03	0.002
774.21	0.002
774.39	0.002
774.57	0.002
774.75	0.002
774.93	0.001
775.11	0.002
775.29	0.002
775.47	0.002
775.65	0.002
775.83	0.002
776.01	0.002
776.19	0.002
776.37	0.002
776.55	0.002
776.73	0.002
776.91	0.002
777.09	0.002
777.27	0.002
777.45	0.002
777.63	0.002
777.81	0.002
777.99	0.002
778.17	0.002
778.35	0.002
778.53	0.003
778.71	0.002
778.89	0.002
779.07	0.002
779.24	0.002
779.42	0.002
779.60	0.002
779.78	0.002
779.96	0.002
780.14	0.001
780.32	0.001
780.50	0.001
780.68	0.001
780.86	0.001
781.04	0.001
781.22	0.001
781.40	0.001
781.58	0.001
781.75	0.001
781.93	0.002
782.11	0.002
782.29	0.002
782.47	0.002
782.65	0.002
782.83	0.003
783.01	0.003
783.19	0.003
783.37	0.003
783.55	0.003
783.72	0.003
783.90	0.003
784.08	0.003
784.26	0.003
784.44	0.002
784.62	0.002
784.80	0.002
784.98	0.002
785.16	0.002
785.33	0.002
785.51	0.002
785.69	0.002
785.87	0.002
786.05	0.002
786.23	0.002
786.41	0.002
786.59	0.002
786.77	0.003
786.94	0.002
787.12	0.002
787.30	0.002
787.48	0.002
787.66	0.002
787.84	0.002
788.02	0.002
788.19	0.002
788.37	0.002
788.55	0.002
788.73	0.002
788.91	0.002
789.09	0.002
789.27	0.002
789.44	0.002
789.62	0.002
789.80	0.002
789.98	0.002
790.16	0.002
790.34	0.001
790.51	0.002
790.69	0.001
790.87	0.002
791.05	0.002
791.23	0.002
791.41	0.002
791.58	0.002
791.76	0.002
791.94	0.002
792.12	0.002
792.30	0.002
792.48	0.002
792.65	0.002
792.83	0.001
793.01	0.002
793.19	0.001
793.37	0.001
793.54	0.001
793.72	0.000
793.90	0.001
794.08	0.001
794.26	0.001
794.43	0.001
794.61	0.002
794.79	0.002
794.97	0.002
795.15	0.002
795.32	0.002
795.50	0.002
795.68	0.003
795.86	0.002
796.04	0.002
796.21	0.002
796.39	0.002
796.57	0.001
796.75	0.002
796.92	0.002
797.10	0.002
797.28	0.002
797.46	0.002
797.64	0.001
797.81	0.001
797.99	0.002
798.17	0.002
798.35	0.002
798.52	0.002
798.70	0.002
798.88	0.001
799.06	0.001
799.23	0.001
799.41	0.002
799.59	0.002
799.77	0.002
799.94	0.002
800.12	0.002
800.30	0.002
800.48	0.002
800.65	0.001
800.83	0.002
801.01	0.002
801.19	0.002
801.36	0.002
801.54	0.002
801.72	0.002
801.90	0.002
802.07	0.002
802.25	0.002
802.43	0.002
802.60	0.003
802.78	0.003
802.96	0.003
803.14	0.002
803.31	0.002
803.49	0.002
803.67	0.002
803.84	0.002
804.02	0.002
804.20	0.002
804.38	0.002
804.55	0.001
804.73	0.001
804.91	0.001
805.08	0.001
805.26	0.001
805.44	0.001
805.61	0.002
805.79	0.002
805.97	0.002
806.15	0.002
806.32	0.002
806.50	0.001
806.68	0.001
806.85	0.001
807.03	0.001
807.21	0.001
807.38	0.001
807.56	0.001
807.74	0.001
807.91	0.001
808.09	0.001
808.27	0.000
808.44	0.001
808.62	0.001
808.80	0.001
808.97	0.001
809.15	0.002
809.33	0.001
809.50	0.001
809.68	0.001
809.86	0.001
810.03	0.001
810.21	0.001
810.39	0.002
810.56	0.002
810.74	0.002
810.91	0.001
811.09	0.001
811.27	0.001
811.44	0.002
811.62	0.002
811.80	0.001
811.97	0.002
812.15	0.002
812.33	0.002
812.50	0.002
812.68	0.002
812.85	0.002
813.03	0.002
813.21	0.002
813.38	0.002
813.56	0.002
813.74	0.002
813.91	0.001
814.09	0.001
814.26	0.002
814.44	0.002
814.62	0.002
814.79	0.001
814.97	0.001
815.14	0.002
815.32	0.001
815.50	0.001
815.67	0.001
815.85	0.002
816.02	0.002
816.20	0.002
816.38	0.002
816.55	0.002
816.73	0.002
816.90	0.002
817.08	0.002
817.26	0.003
817.43	0.003
817.61	0.003
817.78	0.002
817.96	0.002
818.13	0.002
818.31	0.002
818.49	0.002
818.66	0.002
818.84	0.001
819.01	0.001
819.19	0.001
819.36	0.001
819.54	0.001
819.71	0.001
819.89	0.001
820.07	0.001
820.24	0.001
820.42	0.002
820.59	0.002
820.77	0.003
820.94	0.003
821.12	0.003
821.29	0.003
821.47	0.003
821.64	0.004
821.82	0.004
822.00	0.003
822.17	0.003
822.35	0.003
822.52	0.003
822.70	0.002
822.87	0.002
823.05	0.001
823.22	0.002
823.40	0.001
823.57	0.001
823.75	0.001
823.92	0.001
824.10	0.001
824.27	0.001
824.45	0.001
824.62	0.001
824.80	0.001
824.97	0.001
825.15	0.001
825.32	0.002
825.50	0.001
825.67	0.001
825.85	0.001
826.02	0.001
826.20	0.002
826.37	0.002
826.55	0.003
826.72	0.003
826.90	0.003
827.07	0.003
827.25	0.003
827.42	0.003
827.60	0.003
827.77	0.003
827.95	0.003
828.12	0.002
828.30	0.002
828.47	0.002
828.65	0.001
828.82	0.002
829.00	0.001
829.17	0.002
829.34	0.002
829.52	0.003
829.69	0.003
829.87	0.003
830.04	0.003
830.22	0.003
830.39	0.003
830.57	0.004
830.74	0.005
830.92	0.004
831.09	0.004
831.26	0.004
831.44	0.005
831.61	0.005
831.79	0.005
831.96	0.005
832.14	0.004
832.31	0.002
832.49	0.001
832.66	-0.000
832.83	0.002
833.01	0.002
833.18	0.001
833.36	-0.001
833.53	-0.001
833.70	-0.001
833.88	-0.001
834.05	-0.002
834.23	-0.001
834.40	-0.001
834.58	-0.001
834.75	-0.001
834.92	-0.001
835.10	-0.002
835.27	-0.001
835.45	-0.001
835.62	-0.002
835.79	-0.000
835.97	0.000
836.14	-0.000
836.32	0.001
836.49	0.001
836.66	-0.000
836.84	-0.000
837.01	-0.000
837.18	0.002
837.36	0.003
837.53	0.005
837.71	0.004
837.88	0.005
838.05	0.004
838.23	0.005
838.40	0.006
838.58	0.006
838.75	0.006
838.92	0.006
839.10	0.004
839.27	0.003
839.44	0.001
839.62	0.000
839.79	-0.000
839.96	0.003
840.14	0.004
840.31	0.001
840.48	0.001
840.66	0.002
840.83	0.002
841.01	0.002
841.18	0.002
841.35	0.003
841.53	0.001
841.70	0.002
841.87	-0.000
842.05	-0.003
842.22	-0.002
842.39	-0.002
842.57	-0.004
842.74	-0.005
842.91	-0.001
843.09	-0.001
843.26	-0.000
843.43	0.001
843.60	0.001
843.78	0.004
843.95	0.006
844.12	0.006
844.30	0.009
844.47	0.009
844.64	0.011
844.82	0.008
844.99	0.008
845.16	0.006
845.34	0.006
845.51	0.006
845.68	0.006
845.85	0.005
846.03	0.004
846.20	0.005
846.37	0.006
846.55	0.006
846.72	0.006
846.89	0.007
847.06	0.007
847.24	0.007
847.41	0.007
847.58	0.004
847.76	0.006
847.93	0.006
848.10	0.006
848.27	0.007
848.45	0.008
848.62	0.010
848.79	0.010
848.97	0.012
849.14	0.010
849.31	0.010
849.48	0.011
849.66	0.009
849.83	0.009
850.00	0.008
850.17	0.004
850.35	0.001
850.52	-0.002
850.69	-0.001
850.86	-0.002
851.04	-0.000
851.21	-0.002
851.38	-0.002
851.55	-0.004
851.72	-0.003
851.90	-0.001
852.07	0.001
852.24	0.002
852.41	0.002
852.59	0.002
852.76	0.002
852.93	0.003
853.10	0.004
853.28	0.004
853.45	0.005
853.62	0.005
853.79	0.004
853.96	0.005
854.14	0.007
854.31	0.009
854.48	0.006
854.65	0.005
854.82	0.005
855.00	0.006
855.17	0.006
855.34	0.007
855.51	0.007
855.68	0.005
855.86	0.006
856.03	0.005
856.20	0.003
856.37	0.002
856.54	0.002
856.72	0.001
856.89	-0.000
857.06	0.000
857.23	-0.001
857.40	-0.002
857.57	-0.001
857.75	-0.002
857.92	-0.002
858.09	-0.001
858.26	0.001
858.43	-0.000
858.60	-0.000
858.78	-0.000
858.95	0.001
859.12	0.003
859.29	0.001
859.46	0.001
859.63	0.005
859.81	0.006
859.98	0.005
860.15	0.007
860.32	0.007
860.49	0.003
860.66	0.003
860.83	0.003
861.01	0.000
861.18	0.003
861.35	0.000
861.52	-0.005
861.69	-0.007
861.86	-0.004
862.03	-0.002
862.21	0.001
862.38	0.006
862.55	0.008
862.72	0.008
862.89	0.011
863.06	0.010
863.23	0.015
863.40	0.018
863.58	0.015
863.75	0.013
863.92	0.011
864.09	0.008
864.26	0.008
864.43	0.006
864.60	0.006
864.77	0.006
864.94	0.009
865.11	0.002
865.29	0.000
865.46	0.005
865.63	0.005
865.80	0.005
865.97	0.009
866.14	0.009
866.31	0.008
866.48	0.007
866.65	0.006
866.82	0.004
866.99	0.006
867.16	0.006
867.34	0.004
867.51	0.003
867.68	0.003
867.85	-0.004
868.02	-0.007
868.19	-0.011
868.36	-0.013
868.53	-0.019
868.70	-0.019
868.87	-0.023
869.04	-0.019
869.21	-0.018
869.38	-0.017
869.55	-0.018
869.72	-0.016
869.89	-0.011
870.06	-0.006
870.24	-0.003
870.41	-0.003
870.58	-0.004
870.75	-0.000
870.92	-0.001
871.09	-0.005
871.26	-0.003
871.43	0.001
871.60	0.003
871.77	-0.004
871.94	-0.006
872.11	-0.006
872.28	-0.002
872.45	-0.000
872.62	0.000
872.79	-0.006
872.96	-0.004
873.13	-0.008
873.30	-0.015
873.47	-0.015
873.64	-0.009
873.81	-0.008
873.98	-0.008
874.15	-0.004
874.32	-0.010
874.49	-0.003
874.66	-0.001
874.83	0.006
875.00	0.007
875.17	0.008
875.34	0.007
875.51	0.010
875.68	0.011
875.85	0.008
876.02	0.004
876.19	0.007
876.36	0.005
876.53	0.006
876.70	0.007
876.87	0.007
877.04	0.013
877.21	0.017
877.38	0.017
877.55	0.021
877.72	0.023
877.89	0.022
878.06	0.020
878.23	0.018
878.39	0.018
878.56	0.016
878.73	0.016
878.90	0.013
879.07	0.007
879.24	0.008
879.41	0.007
879.58	0.009
879.75	0.007
879.92	0.007
880.09	0.008
880.26	0.009
880.43	0.006
880.60	0.005
880.77	0.008
880.94	0.008
881.11	0.008
881.27	0.007
881.44	0.000
881.61	-0.000
881.78	0.003
881.95	-0.002
882.12	-0.003
882.29	-0.003
882.46	-0.006
882.63	-0.004
882.80	-0.002
882.97	-0.007
883.14	-0.013
883.30	-0.012
883.47	-0.013
883.64	-0.017
883.81	-0.006
883.98	-0.007
884.15	-0.011
884.32	-0.009
884.49	-0.014
884.66	-0.017
884.82	-0.011
884.99	-0.010
885.16	-0.009
885.33	-0.011
885.50	-0.011
885.67	-0.011
885.84	-0.007
886.01	-0.013
886.17	-0.016
886.34	-0.010
886.51	-0.001
886.68	-0.012
886.85	-0.013
887.02	-0.006
887.19	-0.000
887.36	-0.002
887.52	-0.008
887.69	-0.005
887.86	0.008
888.03	0.012
888.20	0.006
888.37	-0.012
888.54	-0.004
888.70	0.001
888.87	-0.003
889.04	-0.006
889.21	-0.003
889.38	0.003
889.55	0.003
889.71	0.016
889.88	-0.046
890.05	-0.074
890.22	0.078
890.39	0.052
>>>>>End Processed Spectral Data<<<<<
