SpectraSuite Data File
++++++++++++++++++++++++++++++++++++
Date: Mon Jun 15 09:14:10 PDT 2015
User: introlabs
Dark Spectrum Present: Yes
Reference Spectrum Present: Yes
Number of Sampled Component Spectra: 1
Spectrometers: USB4H08886
Integration Time (usec): 44366 (USB4H08886)
Spectra Averaged: 20 (USB4H08886)
Boxcar Smoothing: 5 (USB4H08886)
Correct for Electrical Dark: Yes (USB4H08886)
Strobe/Lamp Enabled: No (USB4H08886)
Correct for Detector Non-linearity: Yes (USB4H08886)
Correct for Stray Light: Yes (USB4H08886)
Number of Pixels in Processed Spectrum: 3648
>>>>>Begin Processed Spectral Data<<<<<
178.14	0.616
178.36	0.616
178.57	0.616
178.79	0.199
179.01	-1.063
179.22	-0.000
179.44	-0.000
179.65	0.450
179.87	0.298
180.08	0.147
180.30	0.002
180.52	0.348
180.73	0.306
180.95	0.143
181.16	0.063
181.38	0.063
181.59	0.050
181.81	0.014
182.03	0.019
182.24	0.032
182.46	0.030
182.67	0.033
182.89	0.020
183.10	0.020
183.32	0.013
183.54	0.013
183.75	0.012
183.97	0.007
184.18	0.007
184.40	0.000
184.61	0.007
184.83	0.013
185.04	0.004
185.26	0.013
185.48	0.012
185.69	0.013
185.91	0.016
186.12	0.012
186.34	0.025
186.55	0.025
186.77	0.024
186.98	0.015
187.20	0.001
187.42	0.014
187.63	0.007
187.85	0.013
188.06	0.017
188.28	0.018
188.49	0.021
188.71	0.015
188.92	0.017
189.14	0.011
189.36	0.010
189.57	0.025
189.79	0.016
190.00	0.023
190.22	0.011
190.43	0.013
190.65	0.008
190.86	0.017
191.08	0.016
191.29	0.013
191.51	0.016
191.72	0.013
191.94	0.006
192.16	0.013
192.37	0.001
192.59	0.016
192.80	0.008
193.02	0.010
193.23	0.015
193.45	0.011
193.66	0.017
193.88	0.017
194.09	0.016
194.31	0.010
194.52	0.006
194.74	0.007
194.95	-0.003
195.17	0.008
195.38	0.010
195.60	-0.008
195.81	-0.006
196.03	-0.007
196.25	-0.001
196.46	-0.001
196.68	0.003
196.89	0.009
197.11	0.012
197.32	0.010
197.54	-0.006
197.75	0.001
197.97	0.007
198.18	0.005
198.40	0.004
198.61	-0.001
198.83	-0.005
199.04	-0.001
199.26	-0.011
199.47	-0.014
199.69	0.001
199.90	0.017
200.12	0.009
200.33	0.010
200.55	0.011
200.76	0.009
200.98	0.006
201.19	0.010
201.41	0.006
201.62	0.006
201.84	0.012
202.05	0.004
202.27	0.001
202.48	-0.001
202.70	0.004
202.91	0.005
203.13	0.000
203.34	-0.002
203.56	-0.005
203.77	-0.002
203.99	-0.004
204.20	-0.012
204.42	-0.017
204.63	-0.019
204.85	-0.018
205.06	-0.025
205.28	-0.024
205.49	-0.014
205.71	-0.002
205.92	-0.000
206.14	-0.007
206.35	0.001
206.56	0.008
206.78	0.009
206.99	0.007
207.21	0.011
207.42	0.014
207.64	0.011
207.85	0.006
208.07	-0.001
208.28	0.003
208.50	0.014
208.71	0.015
208.93	0.016
209.14	0.022
209.36	0.022
209.57	0.026
209.79	0.031
210.00	0.030
210.22	0.037
210.43	0.039
210.64	0.037
210.86	0.026
211.07	0.020
211.29	0.020
211.50	0.018
211.72	0.010
211.93	0.002
212.15	-0.003
212.36	-0.010
212.58	-0.012
212.79	-0.017
213.01	-0.021
213.22	-0.013
213.43	-0.015
213.65	-0.015
213.86	-0.013
214.08	-0.001
214.29	0.000
214.51	0.001
214.72	0.007
214.94	0.002
215.15	0.008
215.36	0.007
215.58	0.002
215.79	0.000
216.01	0.000
216.22	-0.001
216.44	-0.007
216.65	-0.008
216.87	-0.008
217.08	-0.007
217.29	-0.003
217.51	-0.006
217.72	-0.004
217.94	0.002
218.15	0.007
218.37	0.005
218.58	0.004
218.80	0.011
219.01	0.011
219.22	0.008
219.44	0.010
219.65	0.010
219.87	0.011
220.08	0.008
220.30	0.003
220.51	-0.003
220.72	-0.006
220.94	-0.012
221.15	-0.016
221.37	-0.018
221.58	-0.015
221.79	-0.013
222.01	-0.019
222.22	-0.018
222.44	-0.015
222.65	-0.018
222.87	-0.015
223.08	-0.013
223.29	-0.011
223.51	-0.016
223.72	-0.018
223.94	-0.021
224.15	-0.024
224.36	-0.019
224.58	-0.025
224.79	-0.022
225.01	-0.023
225.22	-0.020
225.44	-0.020
225.65	-0.020
225.86	-0.016
226.08	-0.013
226.29	-0.013
226.51	-0.015
226.72	-0.016
226.93	-0.011
227.15	-0.019
227.36	-0.019
227.58	-0.023
227.79	-0.020
228.00	-0.022
228.22	-0.029
228.43	-0.029
228.65	-0.027
228.86	-0.027
229.07	-0.027
229.29	-0.029
229.50	-0.027
229.72	-0.027
229.93	-0.029
230.14	-0.032
230.36	-0.032
230.57	-0.030
230.78	-0.035
231.00	-0.041
231.21	-0.046
231.43	-0.048
231.64	-0.048
231.85	-0.047
232.07	-0.047
232.28	-0.045
232.50	-0.048
232.71	-0.050
232.92	-0.049
233.14	-0.049
233.35	-0.047
233.56	-0.044
233.78	-0.044
233.99	-0.047
234.21	-0.047
234.42	-0.047
234.63	-0.048
234.85	-0.048
235.06	-0.049
235.27	-0.048
235.49	-0.046
235.70	-0.048
235.91	-0.049
236.13	-0.049
236.34	-0.050
236.56	-0.050
236.77	-0.051
236.98	-0.050
237.20	-0.049
237.41	-0.048
237.62	-0.047
237.84	-0.048
238.05	-0.047
238.26	-0.047
238.48	-0.046
238.69	-0.045
238.91	-0.045
239.12	-0.045
239.33	-0.044
239.55	-0.042
239.76	-0.042
239.97	-0.042
240.19	-0.041
240.40	-0.040
240.61	-0.039
240.83	-0.039
241.04	-0.038
241.25	-0.037
241.47	-0.035
241.68	-0.034
241.89	-0.034
242.11	-0.033
242.32	-0.032
242.53	-0.032
242.75	-0.031
242.96	-0.031
243.17	-0.030
243.39	-0.029
243.60	-0.029
243.81	-0.029
244.03	-0.029
244.24	-0.028
244.45	-0.028
244.67	-0.027
244.88	-0.026
245.09	-0.026
245.31	-0.025
245.52	-0.024
245.73	-0.024
245.95	-0.023
246.16	-0.023
246.37	-0.023
246.59	-0.022
246.80	-0.022
247.01	-0.022
247.23	-0.022
247.44	-0.022
247.65	-0.021
247.87	-0.021
248.08	-0.021
248.29	-0.020
248.51	-0.020
248.72	-0.019
248.93	-0.019
249.15	-0.019
249.36	-0.019
249.57	-0.019
249.78	-0.019
250.00	-0.019
250.21	-0.018
250.42	-0.018
250.64	-0.018
250.85	-0.018
251.06	-0.017
251.28	-0.017
251.49	-0.017
251.70	-0.017
251.92	-0.017
252.13	-0.016
252.34	-0.016
252.55	-0.016
252.77	-0.016
252.98	-0.016
253.19	-0.016
253.41	-0.016
253.62	-0.015
253.83	-0.015
254.05	-0.014
254.26	-0.015
254.47	-0.015
254.68	-0.015
254.90	-0.015
255.11	-0.014
255.32	-0.014
255.54	-0.014
255.75	-0.014
255.96	-0.014
256.17	-0.014
256.39	-0.014
256.60	-0.013
256.81	-0.013
257.03	-0.013
257.24	-0.012
257.45	-0.013
257.66	-0.013
257.88	-0.013
258.09	-0.013
258.30	-0.013
258.51	-0.013
258.73	-0.013
258.94	-0.013
259.15	-0.013
259.37	-0.014
259.58	-0.014
259.79	-0.014
260.00	-0.014
260.22	-0.014
260.43	-0.014
260.64	-0.014
260.85	-0.014
261.07	-0.014
261.28	-0.014
261.49	-0.014
261.71	-0.014
261.92	-0.015
262.13	-0.014
262.34	-0.015
262.56	-0.015
262.77	-0.015
262.98	-0.015
263.19	-0.015
263.41	-0.016
263.62	-0.016
263.83	-0.017
264.04	-0.017
264.26	-0.017
264.47	-0.017
264.68	-0.017
264.89	-0.017
265.11	-0.018
265.32	-0.017
265.53	-0.017
265.74	-0.017
265.96	-0.017
266.17	-0.017
266.38	-0.017
266.59	-0.018
266.81	-0.018
267.02	-0.018
267.23	-0.019
267.44	-0.019
267.65	-0.020
267.87	-0.020
268.08	-0.020
268.29	-0.020
268.50	-0.020
268.72	-0.021
268.93	-0.020
269.14	-0.021
269.35	-0.021
269.57	-0.021
269.78	-0.021
269.99	-0.021
270.20	-0.021
270.41	-0.022
270.63	-0.022
270.84	-0.023
271.05	-0.023
271.26	-0.023
271.48	-0.023
271.69	-0.024
271.90	-0.024
272.11	-0.024
272.32	-0.024
272.54	-0.025
272.75	-0.025
272.96	-0.025
273.17	-0.025
273.39	-0.025
273.60	-0.025
273.81	-0.025
274.02	-0.025
274.23	-0.025
274.45	-0.025
274.66	-0.025
274.87	-0.026
275.08	-0.026
275.29	-0.026
275.51	-0.026
275.72	-0.026
275.93	-0.026
276.14	-0.026
276.35	-0.025
276.57	-0.026
276.78	-0.026
276.99	-0.026
277.20	-0.025
277.41	-0.025
277.63	-0.025
277.84	-0.025
278.05	-0.025
278.26	-0.025
278.47	-0.025
278.69	-0.025
278.90	-0.025
279.11	-0.024
279.32	-0.024
279.53	-0.024
279.74	-0.024
279.96	-0.024
280.17	-0.023
280.38	-0.023
280.59	-0.023
280.80	-0.022
281.02	-0.022
281.23	-0.022
281.44	-0.022
281.65	-0.022
281.86	-0.022
282.07	-0.021
282.29	-0.021
282.50	-0.021
282.71	-0.021
282.92	-0.021
283.13	-0.021
283.35	-0.021
283.56	-0.020
283.77	-0.020
283.98	-0.020
284.19	-0.019
284.40	-0.019
284.62	-0.018
284.83	-0.018
285.04	-0.017
285.25	-0.017
285.46	-0.016
285.67	-0.016
285.88	-0.015
286.10	-0.015
286.31	-0.014
286.52	-0.014
286.73	-0.013
286.94	-0.012
287.15	-0.012
287.37	-0.011
287.58	-0.011
287.79	-0.010
288.00	-0.010
288.21	-0.009
288.42	-0.009
288.63	-0.008
288.85	-0.008
289.06	-0.007
289.27	-0.007
289.48	-0.006
289.69	-0.006
289.90	-0.005
290.11	-0.005
290.33	-0.004
290.54	-0.004
290.75	-0.003
290.96	-0.003
291.17	-0.003
291.38	-0.003
291.59	-0.002
291.81	-0.002
292.02	-0.002
292.23	-0.001
292.44	-0.001
292.65	-0.001
292.86	-0.001
293.07	-0.001
293.28	-0.000
293.50	-0.000
293.71	0.000
293.92	0.000
294.13	0.001
294.34	0.001
294.55	0.001
294.76	0.001
294.97	0.002
295.19	0.002
295.40	0.002
295.61	0.002
295.82	0.002
296.03	0.002
296.24	0.002
296.45	0.002
296.66	0.002
296.87	0.002
297.09	0.002
297.30	0.002
297.51	0.002
297.72	0.002
297.93	0.003
298.14	0.003
298.35	0.003
298.56	0.003
298.77	0.003
298.99	0.003
299.20	0.003
299.41	0.003
299.62	0.003
299.83	0.003
300.04	0.003
300.25	0.003
300.46	0.003
300.67	0.003
300.88	0.003
301.10	0.003
301.31	0.004
301.52	0.003
301.73	0.003
301.94	0.003
302.15	0.003
302.36	0.003
302.57	0.003
302.78	0.003
302.99	0.003
303.20	0.003
303.41	0.004
303.63	0.004
303.84	0.004
304.05	0.004
304.26	0.004
304.47	0.004
304.68	0.004
304.89	0.004
305.10	0.004
305.31	0.004
305.52	0.004
305.73	0.004
305.94	0.004
306.15	0.004
306.37	0.004
306.58	0.004
306.79	0.004
307.00	0.004
307.21	0.005
307.42	0.005
307.63	0.005
307.84	0.005
308.05	0.005
308.26	0.005
308.47	0.005
308.68	0.005
308.89	0.005
309.10	0.005
309.31	0.005
309.52	0.005
309.73	0.005
309.95	0.005
310.16	0.004
310.37	0.005
310.58	0.005
310.79	0.005
311.00	0.005
311.21	0.005
311.42	0.005
311.63	0.005
311.84	0.005
312.05	0.005
312.26	0.005
312.47	0.005
312.68	0.005
312.89	0.005
313.10	0.005
313.31	0.005
313.52	0.005
313.73	0.006
313.94	0.006
314.15	0.006
314.36	0.006
314.57	0.006
314.78	0.006
314.99	0.006
315.21	0.006
315.42	0.006
315.63	0.006
315.84	0.006
316.05	0.006
316.26	0.006
316.47	0.006
316.68	0.006
316.89	0.006
317.10	0.006
317.31	0.006
317.52	0.006
317.73	0.006
317.94	0.006
318.15	0.006
318.36	0.006
318.57	0.006
318.78	0.006
318.99	0.006
319.20	0.007
319.41	0.007
319.62	0.007
319.83	0.007
320.04	0.007
320.25	0.007
320.46	0.007
320.67	0.007
320.88	0.006
321.09	0.006
321.30	0.006
321.51	0.006
321.72	0.006
321.93	0.006
322.14	0.006
322.35	0.006
322.56	0.006
322.77	0.006
322.98	0.006
323.19	0.006
323.40	0.006
323.61	0.006
323.82	0.007
324.03	0.007
324.24	0.007
324.45	0.007
324.66	0.007
324.87	0.007
325.08	0.007
325.29	0.007
325.50	0.007
325.71	0.007
325.92	0.007
326.13	0.007
326.34	0.007
326.55	0.007
326.76	0.007
326.97	0.007
327.18	0.007
327.39	0.007
327.60	0.007
327.80	0.007
328.01	0.007
328.22	0.007
328.43	0.007
328.64	0.007
328.85	0.007
329.06	0.007
329.27	0.007
329.48	0.007
329.69	0.007
329.90	0.007
330.11	0.007
330.32	0.007
330.53	0.007
330.74	0.006
330.95	0.006
331.16	0.006
331.37	0.007
331.58	0.007
331.79	0.007
332.00	0.007
332.21	0.007
332.42	0.007
332.63	0.007
332.83	0.007
333.04	0.007
333.25	0.007
333.46	0.007
333.67	0.007
333.88	0.007
334.09	0.007
334.30	0.007
334.51	0.007
334.72	0.007
334.93	0.006
335.14	0.006
335.35	0.006
335.56	0.006
335.77	0.006
335.98	0.006
336.18	0.006
336.39	0.006
336.60	0.006
336.81	0.006
337.02	0.006
337.23	0.006
337.44	0.006
337.65	0.006
337.86	0.006
338.07	0.006
338.28	0.006
338.49	0.006
338.70	0.006
338.91	0.006
339.11	0.006
339.32	0.006
339.53	0.006
339.74	0.005
339.95	0.005
340.16	0.005
340.37	0.005
340.58	0.005
340.79	0.005
341.00	0.005
341.21	0.005
341.41	0.005
341.62	0.005
341.83	0.005
342.04	0.005
342.25	0.004
342.46	0.004
342.67	0.004
342.88	0.004
343.09	0.004
343.30	0.004
343.50	0.004
343.71	0.004
343.92	0.004
344.13	0.004
344.34	0.004
344.55	0.004
344.76	0.004
344.97	0.004
345.18	0.004
345.38	0.004
345.59	0.004
345.80	0.004
346.01	0.004
346.22	0.004
346.43	0.004
346.64	0.004
346.85	0.004
347.06	0.004
347.26	0.004
347.47	0.004
347.68	0.004
347.89	0.004
348.10	0.004
348.31	0.003
348.52	0.003
348.73	0.003
348.93	0.003
349.14	0.003
349.35	0.003
349.56	0.003
349.77	0.003
349.98	0.003
350.19	0.003
350.39	0.003
350.60	0.003
350.81	0.003
351.02	0.003
351.23	0.003
351.44	0.003
351.65	0.003
351.86	0.003
352.06	0.003
352.27	0.003
352.48	0.003
352.69	0.003
352.90	0.003
353.11	0.003
353.31	0.003
353.52	0.003
353.73	0.003
353.94	0.003
354.15	0.003
354.36	0.003
354.57	0.003
354.77	0.003
354.98	0.003
355.19	0.003
355.40	0.003
355.61	0.003
355.82	0.003
356.02	0.003
356.23	0.003
356.44	0.003
356.65	0.003
356.86	0.003
357.07	0.003
357.27	0.003
357.48	0.003
357.69	0.003
357.90	0.003
358.11	0.003
358.32	0.003
358.52	0.003
358.73	0.003
358.94	0.003
359.15	0.002
359.36	0.003
359.56	0.002
359.77	0.002
359.98	0.002
360.19	0.002
360.40	0.002
360.61	0.002
360.81	0.002
361.02	0.003
361.23	0.003
361.44	0.003
361.65	0.003
361.85	0.002
362.06	0.002
362.27	0.003
362.48	0.003
362.69	0.002
362.89	0.002
363.10	0.002
363.31	0.002
363.52	0.002
363.73	0.002
363.93	0.002
364.14	0.003
364.35	0.002
364.56	0.002
364.77	0.002
364.97	0.002
365.18	0.002
365.39	0.002
365.60	0.002
365.81	0.002
366.01	0.002
366.22	0.002
366.43	0.002
366.64	0.002
366.84	0.002
367.05	0.002
367.26	0.002
367.47	0.002
367.68	0.003
367.88	0.003
368.09	0.003
368.30	0.003
368.51	0.003
368.71	0.003
368.92	0.003
369.13	0.003
369.34	0.003
369.55	0.003
369.75	0.002
369.96	0.002
370.17	0.002
370.38	0.002
370.58	0.002
370.79	0.002
371.00	0.002
371.21	0.002
371.41	0.003
371.62	0.002
371.83	0.002
372.04	0.003
372.24	0.003
372.45	0.002
372.66	0.002
372.87	0.002
373.07	0.002
373.28	0.002
373.49	0.002
373.70	0.002
373.90	0.002
374.11	0.002
374.32	0.002
374.53	0.002
374.73	0.002
374.94	0.002
375.15	0.002
375.36	0.002
375.56	0.002
375.77	0.002
375.98	0.002
376.19	0.002
376.39	0.002
376.60	0.002
376.81	0.002
377.02	0.002
377.22	0.002
377.43	0.002
377.64	0.002
377.84	0.002
378.05	0.002
378.26	0.002
378.47	0.002
378.67	0.002
378.88	0.002
379.09	0.002
379.30	0.002
379.50	0.002
379.71	0.002
379.92	0.002
380.12	0.002
380.33	0.002
380.54	0.002
380.75	0.002
380.95	0.002
381.16	0.002
381.37	0.002
381.57	0.002
381.78	0.002
381.99	0.002
382.20	0.002
382.40	0.002
382.61	0.002
382.82	0.002
383.02	0.002
383.23	0.002
383.44	0.002
383.64	0.002
383.85	0.002
384.06	0.002
384.27	0.002
384.47	0.002
384.68	0.002
384.89	0.002
385.09	0.002
385.30	0.002
385.51	0.001
385.71	0.001
385.92	0.001
386.13	0.001
386.33	0.001
386.54	0.001
386.75	0.001
386.95	0.001
387.16	0.001
387.37	0.001
387.58	0.001
387.78	0.002
387.99	0.002
388.20	0.002
388.40	0.002
388.61	0.002
388.82	0.002
389.02	0.002
389.23	0.002
389.44	0.002
389.64	0.002
389.85	0.001
390.06	0.001
390.26	0.001
390.47	0.001
390.68	0.001
390.88	0.001
391.09	0.001
391.30	0.001
391.50	0.001
391.71	0.001
391.92	0.001
392.12	0.001
392.33	0.001
392.53	0.001
392.74	0.001
392.95	0.001
393.15	0.001
393.36	0.001
393.57	0.001
393.77	0.001
393.98	0.001
394.19	0.002
394.39	0.002
394.60	0.002
394.81	0.001
395.01	0.001
395.22	0.001
395.43	0.001
395.63	0.001
395.84	0.001
396.04	0.001
396.25	0.001
396.46	0.001
396.66	0.001
396.87	0.001
397.08	0.001
397.28	0.001
397.49	0.001
397.69	0.001
397.90	0.001
398.11	0.001
398.31	0.001
398.52	0.001
398.73	0.001
398.93	0.001
399.14	0.001
399.34	0.001
399.55	0.001
399.76	0.001
399.96	0.001
400.17	0.001
400.37	0.001
400.58	0.001
400.79	0.001
400.99	0.001
401.20	0.001
401.41	0.001
401.61	0.001
401.82	0.001
402.02	0.001
402.23	0.001
402.44	0.001
402.64	0.001
402.85	0.001
403.05	0.001
403.26	0.001
403.47	0.001
403.67	0.001
403.88	0.001
404.08	0.001
404.29	0.001
404.50	0.001
404.70	0.001
404.91	0.001
405.11	0.001
405.32	0.001
405.52	0.000
405.73	0.000
405.94	0.000
406.14	0.000
406.35	0.000
406.55	0.000
406.76	0.000
406.97	0.000
407.17	0.000
407.38	0.000
407.58	0.000
407.79	0.000
407.99	0.000
408.20	0.000
408.41	0.000
408.61	0.000
408.82	0.000
409.02	0.000
409.23	0.000
409.43	0.000
409.64	0.000
409.84	0.000
410.05	0.000
410.26	0.000
410.46	0.000
410.67	0.000
410.87	0.000
411.08	0.000
411.28	0.000
411.49	0.001
411.69	0.000
411.90	0.000
412.11	0.000
412.31	0.000
412.52	0.000
412.72	0.000
412.93	0.000
413.13	0.000
413.34	0.000
413.54	0.000
413.75	0.000
413.95	0.000
414.16	0.000
414.37	0.000
414.57	0.000
414.78	0.000
414.98	0.000
415.19	0.000
415.39	0.000
415.60	0.000
415.80	0.000
416.01	0.000
416.21	0.000
416.42	0.000
416.62	0.000
416.83	0.000
417.03	0.000
417.24	0.000
417.44	0.000
417.65	-0.000
417.86	-0.000
418.06	-0.000
418.27	-0.000
418.47	-0.000
418.68	-0.000
418.88	-0.001
419.09	-0.001
419.29	-0.001
419.50	-0.000
419.70	-0.000
419.91	-0.000
420.11	-0.000
420.32	-0.000
420.52	-0.000
420.73	-0.000
420.93	-0.000
421.14	-0.000
421.34	-0.000
421.55	-0.000
421.75	-0.000
421.96	-0.000
422.16	-0.000
422.37	-0.000
422.57	-0.000
422.78	-0.000
422.98	-0.000
423.19	-0.000
423.39	-0.000
423.60	-0.000
423.80	-0.000
424.01	0.000
424.21	0.000
424.42	0.000
424.62	0.001
424.83	0.001
425.03	0.000
425.23	0.000
425.44	0.000
425.64	0.000
425.85	0.000
426.05	0.000
426.26	0.000
426.46	0.000
426.67	-0.000
426.87	-0.000
427.08	-0.000
427.28	-0.000
427.49	-0.001
427.69	-0.001
427.90	-0.001
428.10	-0.001
428.31	-0.001
428.51	-0.001
428.71	-0.001
428.92	-0.001
429.12	-0.001
429.33	-0.001
429.53	-0.001
429.74	-0.000
429.94	-0.000
430.15	-0.000
430.35	-0.000
430.56	-0.000
430.76	0.000
430.96	0.000
431.17	0.000
431.37	0.000
431.58	0.000
431.78	0.000
431.99	0.000
432.19	0.000
432.40	0.000
432.60	-0.000
432.80	-0.000
433.01	-0.000
433.21	-0.000
433.42	-0.000
433.62	-0.000
433.83	-0.000
434.03	-0.000
434.23	-0.000
434.44	-0.000
434.64	-0.000
434.85	-0.000
435.05	-0.000
435.26	-0.000
435.46	-0.000
435.66	-0.000
435.87	-0.000
436.07	-0.001
436.28	-0.001
436.48	-0.001
436.69	-0.001
436.89	-0.001
437.09	-0.001
437.30	-0.001
437.50	-0.000
437.71	-0.000
437.91	-0.000
438.11	-0.000
438.32	-0.000
438.52	-0.000
438.73	-0.000
438.93	-0.000
439.13	-0.000
439.34	-0.000
439.54	-0.000
439.75	-0.000
439.95	-0.000
440.15	-0.000
440.36	-0.000
440.56	-0.000
440.77	-0.000
440.97	-0.000
441.17	-0.000
441.38	-0.000
441.58	-0.001
441.79	-0.001
441.99	-0.001
442.19	-0.001
442.40	-0.001
442.60	-0.001
442.81	-0.001
443.01	-0.001
443.21	-0.001
443.42	-0.001
443.62	-0.001
443.82	-0.000
444.03	-0.000
444.23	-0.000
444.44	-0.000
444.64	-0.000
444.84	-0.000
445.05	-0.000
445.25	-0.000
445.45	-0.000
445.66	-0.001
445.86	-0.000
446.06	-0.000
446.27	-0.000
446.47	-0.000
446.68	-0.000
446.88	-0.000
447.08	-0.000
447.29	-0.000
447.49	-0.000
447.69	-0.000
447.90	-0.000
448.10	-0.000
448.30	-0.000
448.51	-0.000
448.71	-0.000
448.91	-0.000
449.12	-0.000
449.32	-0.000
449.52	-0.000
449.73	-0.000
449.93	-0.000
450.14	-0.000
450.34	-0.000
450.54	-0.000
450.75	-0.000
450.95	-0.000
451.15	-0.000
451.36	-0.000
451.56	-0.000
451.76	-0.000
451.97	-0.001
452.17	-0.001
452.37	-0.001
452.58	-0.001
452.78	-0.001
452.98	-0.001
453.19	-0.001
453.39	-0.000
453.59	-0.000
453.79	-0.000
454.00	-0.000
454.20	-0.000
454.40	-0.000
454.61	-0.000
454.81	-0.000
455.01	-0.000
455.22	-0.000
455.42	-0.000
455.62	-0.000
455.83	-0.000
456.03	-0.000
456.23	-0.000
456.44	-0.000
456.64	-0.000
456.84	-0.000
457.04	-0.000
457.25	-0.000
457.45	-0.000
457.65	-0.000
457.86	-0.000
458.06	-0.000
458.26	-0.000
458.47	-0.000
458.67	-0.000
458.87	-0.000
459.07	-0.000
459.28	-0.001
459.48	-0.000
459.68	-0.000
459.89	-0.000
460.09	-0.000
460.29	-0.001
460.49	-0.001
460.70	-0.000
460.90	-0.000
461.10	-0.000
461.31	-0.000
461.51	-0.000
461.71	-0.000
461.91	-0.000
462.12	-0.000
462.32	-0.000
462.52	-0.000
462.72	-0.000
462.93	-0.001
463.13	-0.001
463.33	-0.001
463.53	-0.001
463.74	-0.001
463.94	-0.001
464.14	-0.001
464.35	-0.001
464.55	-0.001
464.75	-0.001
464.95	-0.001
465.16	-0.001
465.36	-0.001
465.56	-0.001
465.76	-0.001
465.97	-0.001
466.17	-0.001
466.37	-0.001
466.57	-0.001
466.78	-0.001
466.98	-0.001
467.18	-0.000
467.38	-0.000
467.59	-0.000
467.79	-0.000
467.99	-0.000
468.19	-0.000
468.39	-0.000
468.60	-0.000
468.80	-0.000
469.00	-0.000
469.20	-0.001
469.41	-0.001
469.61	-0.001
469.81	-0.001
470.01	-0.001
470.22	-0.001
470.42	-0.001
470.62	-0.001
470.82	-0.001
471.02	-0.001
471.23	-0.001
471.43	-0.001
471.63	-0.001
471.83	-0.001
472.04	-0.001
472.24	-0.001
472.44	-0.001
472.64	-0.001
472.84	-0.001
473.05	-0.001
473.25	-0.002
473.45	-0.002
473.65	-0.001
473.85	-0.002
474.06	-0.002
474.26	-0.001
474.46	-0.001
474.66	-0.001
474.86	-0.001
475.07	-0.001
475.27	-0.001
475.47	-0.001
475.67	-0.001
475.87	-0.001
476.08	-0.000
476.28	-0.000
476.48	-0.000
476.68	-0.000
476.88	-0.000
477.09	-0.000
477.29	-0.000
477.49	-0.000
477.69	-0.001
477.89	-0.001
478.09	-0.001
478.30	-0.001
478.50	-0.001
478.70	-0.001
478.90	-0.001
479.10	-0.001
479.31	-0.001
479.51	-0.001
479.71	-0.001
479.91	-0.001
480.11	-0.001
480.31	-0.001
480.52	-0.001
480.72	-0.001
480.92	-0.001
481.12	-0.001
481.32	-0.001
481.52	-0.001
481.72	-0.001
481.93	-0.001
482.13	-0.001
482.33	-0.001
482.53	-0.001
482.73	-0.001
482.93	-0.001
483.14	-0.001
483.34	-0.001
483.54	-0.002
483.74	-0.002
483.94	-0.001
484.14	-0.001
484.34	-0.001
484.55	-0.001
484.75	-0.001
484.95	-0.001
485.15	-0.001
485.35	-0.001
485.55	-0.001
485.75	-0.001
485.96	-0.001
486.16	-0.001
486.36	-0.001
486.56	-0.001
486.76	-0.001
486.96	-0.001
487.16	-0.001
487.36	-0.000
487.57	-0.000
487.77	-0.001
487.97	-0.001
488.17	-0.001
488.37	-0.001
488.57	-0.000
488.77	-0.000
488.97	-0.000
489.18	-0.000
489.38	-0.000
489.58	-0.000
489.78	-0.000
489.98	-0.000
490.18	-0.000
490.38	-0.000
490.58	-0.000
490.78	-0.000
490.98	-0.000
491.19	-0.001
491.39	-0.001
491.59	-0.001
491.79	-0.001
491.99	-0.001
492.19	-0.001
492.39	-0.001
492.59	-0.001
492.79	-0.001
492.99	-0.001
493.20	-0.001
493.40	-0.001
493.60	-0.001
493.80	-0.001
494.00	-0.001
494.20	-0.001
494.40	-0.001
494.60	-0.001
494.80	-0.001
495.00	-0.001
495.20	-0.001
495.40	-0.001
495.61	-0.001
495.81	-0.001
496.01	-0.001
496.21	-0.001
496.41	-0.000
496.61	-0.000
496.81	-0.000
497.01	-0.000
497.21	-0.000
497.41	-0.000
497.61	-0.000
497.81	0.000
498.01	0.000
498.21	0.000
498.41	0.000
498.61	0.000
498.82	0.000
499.02	0.000
499.22	0.000
499.42	-0.000
499.62	-0.000
499.82	-0.000
500.02	-0.000
500.22	-0.000
500.42	-0.000
500.62	-0.000
500.82	-0.000
501.02	-0.001
501.22	-0.001
501.42	-0.001
501.62	-0.000
501.82	-0.000
502.02	-0.001
502.22	-0.001
502.42	-0.000
502.62	-0.000
502.82	-0.000
503.02	-0.000
503.22	-0.000
503.42	-0.000
503.63	-0.000
503.83	-0.000
504.03	-0.000
504.23	-0.000
504.43	-0.000
504.63	-0.000
504.83	-0.000
505.03	-0.000
505.23	-0.000
505.43	-0.000
505.63	-0.000
505.83	-0.000
506.03	-0.000
506.23	-0.000
506.43	0.000
506.63	0.000
506.83	0.000
507.03	0.000
507.23	0.000
507.43	0.000
507.63	-0.000
507.83	-0.000
508.03	-0.000
508.23	-0.000
508.43	-0.000
508.63	-0.000
508.83	-0.000
509.03	0.000
509.23	0.000
509.43	0.000
509.63	0.000
509.83	0.000
510.03	0.000
510.23	0.000
510.43	-0.000
510.63	0.000
510.83	-0.000
511.03	-0.000
511.23	-0.000
511.43	-0.000
511.63	-0.000
511.83	-0.000
512.03	-0.000
512.22	-0.000
512.42	-0.000
512.62	-0.000
512.82	-0.000
513.02	-0.000
513.22	0.000
513.42	-0.000
513.62	0.000
513.82	0.000
514.02	0.000
514.22	0.000
514.42	0.000
514.62	0.000
514.82	-0.000
515.02	0.000
515.22	-0.000
515.42	-0.000
515.62	0.000
515.82	-0.000
516.02	-0.000
516.22	-0.000
516.42	-0.000
516.62	-0.000
516.82	-0.000
517.01	-0.000
517.21	-0.000
517.41	0.000
517.61	0.000
517.81	0.000
518.01	0.000
518.21	0.000
518.41	0.000
518.61	0.000
518.81	0.000
519.01	0.001
519.21	0.001
519.41	0.001
519.61	0.000
519.81	0.000
520.00	0.000
520.20	0.001
520.40	0.001
520.60	0.001
520.80	0.001
521.00	0.001
521.20	0.000
521.40	0.000
521.60	0.001
521.80	0.001
522.00	0.001
522.20	0.000
522.39	0.000
522.59	0.000
522.79	0.000
522.99	0.000
523.19	0.000
523.39	0.000
523.59	0.000
523.79	0.000
523.99	0.000
524.19	0.000
524.38	0.000
524.58	0.000
524.78	0.000
524.98	0.000
525.18	0.000
525.38	0.000
525.58	0.000
525.78	0.000
525.98	0.000
526.18	0.000
526.37	0.000
526.57	0.000
526.77	-0.000
526.97	0.000
527.17	0.000
527.37	-0.000
527.57	0.000
527.77	0.000
527.96	0.000
528.16	-0.000
528.36	0.000
528.56	0.000
528.76	0.000
528.96	0.000
529.16	0.000
529.36	0.000
529.55	0.000
529.75	0.000
529.95	0.000
530.15	0.000
530.35	0.000
530.55	0.000
530.75	0.000
530.94	0.000
531.14	0.000
531.34	0.000
531.54	0.000
531.74	0.000
531.94	0.000
532.13	0.000
532.33	0.000
532.53	0.000
532.73	0.000
532.93	0.000
533.13	0.000
533.33	0.000
533.52	0.000
533.72	0.000
533.92	0.000
534.12	0.000
534.32	0.000
534.52	0.000
534.71	0.000
534.91	0.000
535.11	0.000
535.31	0.000
535.51	0.000
535.71	0.000
535.90	0.000
536.10	0.001
536.30	0.001
536.50	0.000
536.70	0.000
536.89	0.001
537.09	0.001
537.29	0.000
537.49	0.000
537.69	0.000
537.89	0.000
538.08	0.000
538.28	0.000
538.48	0.000
538.68	0.000
538.88	0.000
539.07	0.000
539.27	0.000
539.47	0.000
539.67	0.000
539.87	0.000
540.06	0.000
540.26	0.001
540.46	0.001
540.66	0.001
540.86	0.001
541.05	0.001
541.25	0.001
541.45	0.001
541.65	0.001
541.84	0.001
542.04	0.001
542.24	0.001
542.44	0.001
542.64	0.000
542.83	0.000
543.03	0.000
543.23	0.000
543.43	-0.000
543.62	0.000
543.82	-0.000
544.02	0.000
544.22	0.000
544.42	0.000
544.61	0.000
544.81	0.000
545.01	0.000
545.21	0.000
545.40	0.000
545.60	0.000
545.80	0.000
546.00	0.000
546.19	0.000
546.39	0.000
546.59	0.001
546.79	0.001
546.98	0.001
547.18	0.001
547.38	0.001
547.58	0.001
547.77	0.001
547.97	0.001
548.17	0.001
548.37	0.001
548.56	0.001
548.76	0.001
548.96	0.001
549.16	0.001
549.35	0.001
549.55	0.001
549.75	0.001
549.95	0.001
550.14	0.001
550.34	0.001
550.54	0.001
550.73	0.001
550.93	0.001
551.13	0.000
551.33	0.000
551.52	0.000
551.72	0.000
551.92	0.000
552.12	0.000
552.31	0.000
552.51	0.000
552.71	0.000
552.90	0.000
553.10	0.000
553.30	0.000
553.50	0.001
553.69	0.000
553.89	0.000
554.09	0.000
554.28	0.000
554.48	0.001
554.68	0.001
554.87	0.001
555.07	0.001
555.27	0.001
555.47	0.001
555.66	0.001
555.86	0.001
556.06	0.001
556.25	0.001
556.45	0.001
556.65	0.001
556.84	0.001
557.04	0.001
557.24	0.001
557.43	0.001
557.63	0.001
557.83	0.001
558.02	0.001
558.22	0.001
558.42	0.001
558.61	0.001
558.81	0.001
559.01	0.001
559.21	0.000
559.40	0.000
559.60	0.000
559.80	0.000
559.99	0.000
560.19	0.000
560.39	0.000
560.58	0.000
560.78	0.000
560.97	0.000
561.17	0.000
561.37	0.000
561.56	0.000
561.76	0.000
561.96	0.000
562.15	0.000
562.35	0.001
562.55	0.001
562.74	0.001
562.94	0.001
563.14	0.001
563.33	0.001
563.53	0.001
563.73	0.001
563.92	0.001
564.12	0.001
564.31	0.001
564.51	0.001
564.71	0.001
564.90	0.001
565.10	0.001
565.30	0.001
565.49	0.001
565.69	0.001
565.89	0.001
566.08	0.001
566.28	0.000
566.47	0.000
566.67	0.000
566.87	0.000
567.06	-0.000
567.26	-0.000
567.46	-0.000
567.65	-0.000
567.85	-0.000
568.04	-0.000
568.24	-0.001
568.44	-0.001
568.63	-0.001
568.83	-0.001
569.02	-0.001
569.22	-0.001
569.42	-0.001
569.61	-0.000
569.81	-0.000
570.00	-0.000
570.20	-0.000
570.40	-0.000
570.59	-0.000
570.79	-0.000
570.98	-0.000
571.18	-0.000
571.38	-0.001
571.57	-0.001
571.77	-0.001
571.96	-0.001
572.16	-0.001
572.35	-0.001
572.55	-0.000
572.75	-0.000
572.94	-0.000
573.14	-0.000
573.33	-0.000
573.53	-0.000
573.73	-0.000
573.92	-0.000
574.12	-0.000
574.31	-0.000
574.51	-0.000
574.70	-0.000
574.90	-0.000
575.09	-0.000
575.29	-0.000
575.49	-0.000
575.68	-0.000
575.88	-0.000
576.07	-0.000
576.27	-0.000
576.46	-0.000
576.66	-0.000
576.86	-0.000
577.05	-0.000
577.25	-0.000
577.44	-0.000
577.64	-0.000
577.83	-0.000
578.03	-0.000
578.22	-0.000
578.42	-0.000
578.61	-0.000
578.81	-0.000
579.00	-0.000
579.20	-0.000
579.40	-0.000
579.59	-0.000
579.79	-0.000
579.98	-0.000
580.18	-0.000
580.37	-0.000
580.57	-0.000
580.76	-0.000
580.96	-0.000
581.15	-0.000
581.35	-0.000
581.54	-0.000
581.74	-0.000
581.93	-0.000
582.13	-0.000
582.32	-0.000
582.52	-0.000
582.71	-0.000
582.91	-0.000
583.10	-0.000
583.30	-0.000
583.49	-0.000
583.69	-0.000
583.88	-0.000
584.08	-0.000
584.27	-0.000
584.47	-0.000
584.66	-0.000
584.86	-0.000
585.05	-0.000
585.25	-0.000
585.44	-0.000
585.64	-0.000
585.83	-0.000
586.03	-0.000
586.22	-0.000
586.42	-0.000
586.61	0.000
586.81	0.000
587.00	0.000
587.20	0.001
587.39	0.001
587.59	0.001
587.78	0.001
587.98	0.001
588.17	0.001
588.37	0.001
588.56	0.001
588.76	0.001
588.95	0.001
589.15	0.001
589.34	0.001
589.54	0.001
589.73	0.001
589.92	0.001
590.12	0.001
590.31	0.001
590.51	0.000
590.70	0.000
590.90	0.000
591.09	0.000
591.29	-0.000
591.48	-0.000
591.68	-0.000
591.87	-0.000
592.06	-0.000
592.26	-0.000
592.45	-0.000
592.65	0.000
592.84	0.000
593.04	0.000
593.23	0.000
593.43	0.000
593.62	0.001
593.81	0.001
594.01	0.001
594.20	0.001
594.40	0.001
594.59	0.002
594.79	0.002
594.98	0.002
595.17	0.002
595.37	0.002
595.56	0.001
595.76	0.001
595.95	0.001
596.14	0.001
596.34	0.000
596.53	0.000
596.73	-0.000
596.92	-0.000
597.12	-0.001
597.31	-0.001
597.50	-0.001
597.70	-0.001
597.89	-0.001
598.09	-0.001
598.28	-0.001
598.47	-0.001
598.67	-0.001
598.86	-0.000
599.06	-0.000
599.25	-0.000
599.44	0.000
599.64	0.000
599.83	0.000
600.03	0.001
600.22	0.001
600.41	0.001
600.61	0.001
600.80	0.001
601.00	0.001
601.19	0.002
601.38	0.002
601.58	0.002
601.77	0.002
601.96	0.002
602.16	0.001
602.35	0.001
602.55	0.001
602.74	0.001
602.93	0.001
603.13	0.001
603.32	0.000
603.51	0.000
603.71	-0.000
603.90	-0.000
604.09	-0.000
604.29	-0.001
604.48	-0.001
604.68	-0.001
604.87	-0.001
605.06	-0.001
605.26	-0.001
605.45	-0.000
605.64	-0.000
605.84	-0.000
606.03	-0.000
606.22	-0.000
606.42	0.000
606.61	0.000
606.80	0.000
607.00	0.000
607.19	0.001
607.38	0.001
607.58	0.001
607.77	0.001
607.96	0.001
608.16	0.001
608.35	0.001
608.54	0.001
608.74	0.001
608.93	0.002
609.12	0.002
609.32	0.002
609.51	0.002
609.70	0.002
609.90	0.002
610.09	0.002
610.28	0.002
610.48	0.001
610.67	0.001
610.86	0.001
611.06	0.001
611.25	0.001
611.44	0.001
611.64	0.001
611.83	0.001
612.02	0.001
612.21	0.000
612.41	0.000
612.60	0.000
612.79	0.000
612.99	0.000
613.18	0.000
613.37	0.000
613.57	0.001
613.76	0.001
613.95	0.001
614.14	0.001
614.34	0.001
614.53	0.001
614.72	0.001
614.92	0.001
615.11	0.001
615.30	0.001
615.49	0.002
615.69	0.002
615.88	0.002
616.07	0.002
616.26	0.002
616.46	0.002
616.65	0.002
616.84	0.002
617.04	0.002
617.23	0.002
617.42	0.002
617.61	0.002
617.81	0.002
618.00	0.002
618.19	0.002
618.38	0.002
618.58	0.002
618.77	0.002
618.96	0.002
619.15	0.002
619.35	0.002
619.54	0.002
619.73	0.002
619.92	0.002
620.12	0.002
620.31	0.002
620.50	0.002
620.69	0.002
620.89	0.002
621.08	0.002
621.27	0.002
621.46	0.002
621.66	0.002
621.85	0.002
622.04	0.002
622.23	0.002
622.43	0.002
622.62	0.002
622.81	0.002
623.00	0.002
623.19	0.002
623.39	0.002
623.58	0.002
623.77	0.002
623.96	0.002
624.16	0.002
624.35	0.002
624.54	0.002
624.73	0.002
624.92	0.002
625.12	0.002
625.31	0.002
625.50	0.002
625.69	0.002
625.88	0.002
626.08	0.002
626.27	0.002
626.46	0.002
626.65	0.002
626.84	0.002
627.04	0.002
627.23	0.002
627.42	0.002
627.61	0.002
627.80	0.003
628.00	0.003
628.19	0.003
628.38	0.003
628.57	0.003
628.76	0.003
628.96	0.003
629.15	0.003
629.34	0.003
629.53	0.003
629.72	0.003
629.91	0.003
630.11	0.003
630.30	0.003
630.49	0.003
630.68	0.003
630.87	0.003
631.06	0.003
631.26	0.003
631.45	0.003
631.64	0.003
631.83	0.003
632.02	0.003
632.21	0.003
632.41	0.004
632.60	0.004
632.79	0.004
632.98	0.003
633.17	0.003
633.36	0.003
633.55	0.003
633.75	0.003
633.94	0.003
634.13	0.003
634.32	0.003
634.51	0.003
634.70	0.003
634.89	0.003
635.09	0.003
635.28	0.003
635.47	0.003
635.66	0.003
635.85	0.003
636.04	0.003
636.23	0.004
636.43	0.004
636.62	0.004
636.81	0.004
637.00	0.004
637.19	0.004
637.38	0.004
637.57	0.004
637.76	0.003
637.95	0.003
638.15	0.004
638.34	0.004
638.53	0.004
638.72	0.004
638.91	0.004
639.10	0.004
639.29	0.004
639.48	0.004
639.67	0.003
639.87	0.004
640.06	0.004
640.25	0.004
640.44	0.003
640.63	0.003
640.82	0.003
641.01	0.003
641.20	0.003
641.39	0.004
641.58	0.004
641.78	0.004
641.97	0.004
642.16	0.004
642.35	0.004
642.54	0.004
642.73	0.004
642.92	0.004
643.11	0.004
643.30	0.004
643.49	0.004
643.68	0.004
643.87	0.004
644.06	0.003
644.25	0.004
644.45	0.003
644.64	0.004
644.83	0.004
645.02	0.004
645.21	0.004
645.40	0.004
645.59	0.004
645.78	0.003
645.97	0.003
646.16	0.003
646.35	0.003
646.54	0.003
646.73	0.003
646.92	0.003
647.11	0.003
647.30	0.003
647.49	0.002
647.68	0.002
647.88	0.002
648.07	0.002
648.26	0.003
648.45	0.003
648.64	0.003
648.83	0.002
649.02	0.003
649.21	0.003
649.40	0.003
649.59	0.003
649.78	0.003
649.97	0.003
650.16	0.003
650.35	0.003
650.54	0.003
650.73	0.004
650.92	0.004
651.11	0.004
651.30	0.004
651.49	0.004
651.68	0.004
651.87	0.004
652.06	0.004
652.25	0.004
652.44	0.004
652.63	0.003
652.82	0.002
653.01	0.001
653.20	0.000
653.39	-0.000
653.58	-0.000
653.77	-0.001
653.96	-0.001
654.15	-0.001
654.34	-0.001
654.53	-0.001
654.72	-0.001
654.91	-0.000
655.10	0.000
655.29	0.000
655.48	0.001
655.67	0.001
655.86	0.001
656.05	0.001
656.24	0.001
656.43	0.001
656.62	0.001
656.81	0.002
657.00	0.002
657.19	0.003
657.38	0.004
657.57	0.004
657.76	0.004
657.95	0.005
658.14	0.005
658.33	0.006
658.51	0.006
658.70	0.006
658.89	0.007
659.08	0.006
659.27	0.005
659.46	0.005
659.65	0.005
659.84	0.004
660.03	0.004
660.22	0.004
660.41	0.004
660.60	0.004
660.79	0.004
660.98	0.004
661.17	0.004
661.36	0.004
661.55	0.004
661.74	0.004
661.92	0.004
662.11	0.004
662.30	0.004
662.49	0.003
662.68	0.003
662.87	0.003
663.06	0.003
663.25	0.003
663.44	0.004
663.63	0.004
663.82	0.004
664.01	0.004
664.20	0.004
664.38	0.004
664.57	0.004
664.76	0.004
664.95	0.004
665.14	0.004
665.33	0.004
665.52	0.004
665.71	0.004
665.90	0.004
666.09	0.004
666.28	0.004
666.46	0.004
666.65	0.004
666.84	0.004
667.03	0.004
667.22	0.004
667.41	0.004
667.60	0.004
667.79	0.004
667.98	0.004
668.16	0.004
668.35	0.004
668.54	0.004
668.73	0.004
668.92	0.004
669.11	0.004
669.30	0.004
669.49	0.004
669.67	0.004
669.86	0.004
670.05	0.003
670.24	0.003
670.43	0.003
670.62	0.003
670.81	0.003
671.00	0.003
671.18	0.003
671.37	0.003
671.56	0.003
671.75	0.003
671.94	0.003
672.13	0.003
672.32	0.003
672.50	0.003
672.69	0.003
672.88	0.003
673.07	0.003
673.26	0.004
673.45	0.004
673.63	0.004
673.82	0.004
674.01	0.004
674.20	0.004
674.39	0.004
674.58	0.004
674.76	0.004
674.95	0.004
675.14	0.004
675.33	0.004
675.52	0.004
675.71	0.004
675.89	0.004
676.08	0.004
676.27	0.004
676.46	0.004
676.65	0.004
676.84	0.004
677.02	0.004
677.21	0.004
677.40	0.004
677.59	0.004
677.78	0.004
677.96	0.004
678.15	0.004
678.34	0.004
678.53	0.004
678.72	0.004
678.90	0.004
679.09	0.004
679.28	0.004
679.47	0.004
679.66	0.004
679.84	0.004
680.03	0.004
680.22	0.004
680.41	0.004
680.60	0.004
680.78	0.004
680.97	0.004
681.16	0.004
681.35	0.004
681.53	0.004
681.72	0.004
681.91	0.003
682.10	0.003
682.29	0.003
682.47	0.003
682.66	0.003
682.85	0.003
683.04	0.003
683.22	0.003
683.41	0.003
683.60	0.003
683.79	0.003
683.97	0.003
684.16	0.003
684.35	0.003
684.54	0.003
684.72	0.003
684.91	0.003
685.10	0.003
685.29	0.003
685.47	0.003
685.66	0.003
685.85	0.004
686.04	0.003
686.22	0.004
686.41	0.004
686.60	0.004
686.79	0.004
686.97	0.004
687.16	0.004
687.35	0.004
687.54	0.004
687.72	0.004
687.91	0.004
688.10	0.004
688.29	0.004
688.47	0.004
688.66	0.004
688.85	0.004
689.03	0.004
689.22	0.004
689.41	0.004
689.60	0.004
689.78	0.003
689.97	0.003
690.16	0.003
690.34	0.003
690.53	0.003
690.72	0.004
690.91	0.004
691.09	0.004
691.28	0.004
691.47	0.004
691.65	0.004
691.84	0.004
692.03	0.004
692.21	0.004
692.40	0.004
692.59	0.004
692.77	0.004
692.96	0.004
693.15	0.004
693.34	0.004
693.52	0.004
693.71	0.004
693.90	0.004
694.08	0.004
694.27	0.004
694.46	0.004
694.64	0.004
694.83	0.004
695.02	0.004
695.20	0.004
695.39	0.004
695.58	0.004
695.76	0.004
695.95	0.004
696.14	0.003
696.32	0.004
696.51	0.004
696.70	0.003
696.88	0.003
697.07	0.003
697.26	0.003
697.44	0.003
697.63	0.004
697.81	0.004
698.00	0.004
698.19	0.004
698.37	0.004
698.56	0.004
698.75	0.004
698.93	0.005
699.12	0.005
699.31	0.005
699.49	0.005
699.68	0.004
699.87	0.004
700.05	0.004
700.24	0.004
700.42	0.004
700.61	0.004
700.80	0.004
700.98	0.004
701.17	0.004
701.36	0.004
701.54	0.004
701.73	0.004
701.91	0.004
702.10	0.004
702.29	0.004
702.47	0.004
702.66	0.004
702.84	0.004
703.03	0.004
703.22	0.005
703.40	0.005
703.59	0.005
703.77	0.005
703.96	0.005
704.15	0.005
704.33	0.005
704.52	0.004
704.70	0.005
704.89	0.004
705.08	0.004
705.26	0.004
705.45	0.004
705.63	0.004
705.82	0.004
706.00	0.004
706.19	0.004
706.38	0.004
706.56	0.004
706.75	0.003
706.93	0.003
707.12	0.003
707.30	0.003
707.49	0.003
707.68	0.003
707.86	0.003
708.05	0.003
708.23	0.003
708.42	0.004
708.60	0.003
708.79	0.003
708.98	0.004
709.16	0.004
709.35	0.004
709.53	0.004
709.72	0.004
709.90	0.004
710.09	0.004
710.27	0.004
710.46	0.004
710.64	0.004
710.83	0.004
711.02	0.004
711.20	0.004
711.39	0.004
711.57	0.004
711.76	0.004
711.94	0.004
712.13	0.004
712.31	0.004
712.50	0.004
712.68	0.004
712.87	0.004
713.05	0.003
713.24	0.003
713.42	0.004
713.61	0.003
713.79	0.003
713.98	0.003
714.16	0.003
714.35	0.003
714.54	0.003
714.72	0.003
714.91	0.003
715.09	0.003
715.28	0.003
715.46	0.003
715.65	0.003
715.83	0.003
716.02	0.003
716.20	0.004
716.39	0.004
716.57	0.004
716.76	0.004
716.94	0.004
717.12	0.003
717.31	0.003
717.49	0.003
717.68	0.003
717.86	0.003
718.05	0.003
718.23	0.003
718.42	0.003
718.60	0.003
718.79	0.003
718.97	0.003
719.16	0.003
719.34	0.003
719.53	0.003
719.71	0.003
719.90	0.003
720.08	0.003
720.27	0.003
720.45	0.004
720.63	0.003
720.82	0.004
721.00	0.004
721.19	0.004
721.37	0.004
721.56	0.004
721.74	0.004
721.93	0.004
722.11	0.004
722.30	0.004
722.48	0.004
722.66	0.004
722.85	0.004
723.03	0.004
723.22	0.003
723.40	0.003
723.59	0.003
723.77	0.003
723.95	0.003
724.14	0.003
724.32	0.003
724.51	0.003
724.69	0.003
724.88	0.002
725.06	0.003
725.24	0.003
725.43	0.003
725.61	0.002
725.80	0.002
725.98	0.002
726.16	0.002
726.35	0.002
726.53	0.002
726.72	0.002
726.90	0.003
727.09	0.002
727.27	0.002
727.45	0.002
727.64	0.003
727.82	0.002
728.01	0.003
728.19	0.003
728.37	0.003
728.56	0.003
728.74	0.003
728.92	0.003
729.11	0.003
729.29	0.003
729.48	0.003
729.66	0.003
729.84	0.002
730.03	0.002
730.21	0.002
730.40	0.002
730.58	0.002
730.76	0.002
730.95	0.002
731.13	0.002
731.31	0.002
731.50	0.002
731.68	0.002
731.86	0.002
732.05	0.002
732.23	0.002
732.42	0.002
732.60	0.002
732.78	0.002
732.97	0.002
733.15	0.002
733.33	0.001
733.52	0.001
733.70	0.001
733.88	0.001
734.07	0.001
734.25	0.001
734.43	0.000
734.62	0.000
734.80	0.000
734.98	0.000
735.17	-0.000
735.35	-0.000
735.53	-0.000
735.72	0.000
735.90	0.000
736.08	0.000
736.27	0.000
736.45	0.000
736.63	0.000
736.82	0.001
737.00	0.001
737.18	0.001
737.37	0.001
737.55	0.001
737.73	0.001
737.92	-0.000
738.10	-0.000
738.28	-0.000
738.46	-0.000
738.65	-0.001
738.83	-0.001
739.01	-0.001
739.20	-0.001
739.38	-0.000
739.56	-0.001
739.75	-0.001
739.93	-0.001
740.11	-0.000
740.29	0.000
740.48	0.000
740.66	0.000
740.84	0.000
741.03	0.000
741.21	0.001
741.39	0.001
741.57	0.001
741.76	0.001
741.94	0.001
742.12	0.001
742.31	0.000
742.49	0.001
742.67	0.001
742.85	0.001
743.04	0.001
743.22	0.000
743.40	-0.000
743.58	0.001
743.77	0.001
743.95	0.001
744.13	0.001
744.31	0.001
744.50	0.001
744.68	0.000
744.86	0.001
745.04	0.001
745.23	0.001
745.41	0.001
745.59	-0.000
745.77	-0.000
745.96	0.000
746.14	0.001
746.32	0.001
746.50	0.001
746.69	0.001
746.87	0.001
747.05	0.001
747.23	0.001
747.42	0.001
747.60	0.002
747.78	0.002
747.96	0.002
748.14	0.003
748.33	0.003
748.51	0.002
748.69	0.003
748.87	0.002
749.06	0.003
749.24	0.003
749.42	0.003
749.60	0.003
749.78	0.003
749.97	0.002
750.15	0.002
750.33	0.001
750.51	0.001
750.69	0.001
750.88	0.001
751.06	0.001
751.24	0.001
751.42	0.001
751.60	0.000
751.79	0.001
751.97	0.001
752.15	0.002
752.33	0.002
752.51	0.001
752.69	0.001
752.88	0.002
753.06	0.002
753.24	0.002
753.42	0.002
753.60	0.002
753.78	0.002
753.97	0.002
754.15	0.002
754.33	0.002
754.51	0.002
754.69	0.002
754.87	0.001
755.06	0.001
755.24	0.001
755.42	0.001
755.60	0.001
755.78	0.001
755.96	0.001
756.15	0.001
756.33	0.001
756.51	0.002
756.69	0.002
756.87	0.002
757.05	0.001
757.23	0.001
757.42	0.001
757.60	0.001
757.78	0.001
757.96	0.001
758.14	0.001
758.32	0.001
758.50	0.001
758.69	0.001
758.87	0.001
759.05	0.002
759.23	0.002
759.41	0.002
759.59	0.002
759.77	0.003
759.95	0.003
760.13	0.003
760.32	0.003
760.50	0.004
760.68	0.004
760.86	0.004
761.04	0.003
761.22	0.003
761.40	0.003
761.58	0.003
761.76	0.003
761.95	0.003
762.13	0.003
762.31	0.003
762.49	0.003
762.67	0.003
762.85	0.002
763.03	0.002
763.21	0.002
763.39	0.002
763.57	0.002
763.75	0.002
763.94	0.002
764.12	0.002
764.30	0.001
764.48	0.002
764.66	0.002
764.84	0.002
765.02	0.002
765.20	0.002
765.38	0.002
765.56	0.002
765.74	0.002
765.92	0.002
766.10	0.002
766.28	0.002
766.46	0.003
766.65	0.003
766.83	0.003
767.01	0.003
767.19	0.003
767.37	0.003
767.55	0.003
767.73	0.004
767.91	0.004
768.09	0.004
768.27	0.004
768.45	0.003
768.63	0.003
768.81	0.003
768.99	0.003
769.17	0.004
769.35	0.004
769.53	0.004
769.71	0.004
769.89	0.004
770.07	0.004
770.25	0.004
770.43	0.004
770.61	0.005
770.79	0.005
770.97	0.005
771.15	0.004
771.33	0.004
771.51	0.004
771.69	0.005
771.87	0.004
772.05	0.004
772.24	0.004
772.42	0.004
772.60	0.004
772.78	0.004
772.96	0.005
773.14	0.005
773.32	0.005
773.49	0.005
773.67	0.005
773.85	0.005
774.03	0.005
774.21	0.005
774.39	0.004
774.57	0.004
774.75	0.004
774.93	0.003
775.11	0.004
775.29	0.003
775.47	0.003
775.65	0.003
775.83	0.003
776.01	0.003
776.19	0.002
776.37	0.003
776.55	0.003
776.73	0.002
776.91	0.002
777.09	0.003
777.27	0.003
777.45	0.003
777.63	0.003
777.81	0.004
777.99	0.004
778.17	0.004
778.35	0.004
778.53	0.004
778.71	0.005
778.89	0.004
779.07	0.004
779.24	0.005
779.42	0.004
779.60	0.004
779.78	0.004
779.96	0.004
780.14	0.004
780.32	0.003
780.50	0.003
780.68	0.002
780.86	0.003
781.04	0.003
781.22	0.003
781.40	0.004
781.58	0.004
781.75	0.004
781.93	0.004
782.11	0.005
782.29	0.006
782.47	0.006
782.65	0.007
782.83	0.007
783.01	0.007
783.19	0.007
783.37	0.006
783.55	0.006
783.72	0.006
783.90	0.006
784.08	0.006
784.26	0.006
784.44	0.006
784.62	0.005
784.80	0.005
784.98	0.005
785.16	0.005
785.33	0.005
785.51	0.005
785.69	0.005
785.87	0.005
786.05	0.005
786.23	0.005
786.41	0.005
786.59	0.005
786.77	0.005
786.94	0.005
787.12	0.005
787.30	0.005
787.48	0.005
787.66	0.005
787.84	0.005
788.02	0.005
788.19	0.004
788.37	0.005
788.55	0.005
788.73	0.004
788.91	0.005
789.09	0.005
789.27	0.005
789.44	0.005
789.62	0.005
789.80	0.005
789.98	0.005
790.16	0.005
790.34	0.004
790.51	0.005
790.69	0.005
790.87	0.005
791.05	0.004
791.23	0.005
791.41	0.005
791.58	0.005
791.76	0.005
791.94	0.005
792.12	0.005
792.30	0.005
792.48	0.005
792.65	0.005
792.83	0.005
793.01	0.005
793.19	0.005
793.37	0.005
793.54	0.005
793.72	0.004
793.90	0.005
794.08	0.005
794.26	0.005
794.43	0.005
794.61	0.005
794.79	0.005
794.97	0.005
795.15	0.005
795.32	0.006
795.50	0.006
795.68	0.006
795.86	0.006
796.04	0.006
796.21	0.006
796.39	0.006
796.57	0.006
796.75	0.006
796.92	0.006
797.10	0.006
797.28	0.006
797.46	0.006
797.64	0.005
797.81	0.005
797.99	0.005
798.17	0.004
798.35	0.005
798.52	0.004
798.70	0.005
798.88	0.005
799.06	0.004
799.23	0.004
799.41	0.005
799.59	0.005
799.77	0.005
799.94	0.006
800.12	0.006
800.30	0.006
800.48	0.005
800.65	0.005
800.83	0.005
801.01	0.006
801.19	0.006
801.36	0.005
801.54	0.005
801.72	0.005
801.90	0.005
802.07	0.005
802.25	0.005
802.43	0.005
802.60	0.005
802.78	0.006
802.96	0.005
803.14	0.005
803.31	0.005
803.49	0.005
803.67	0.005
803.84	0.005
804.02	0.005
804.20	0.005
804.38	0.005
804.55	0.005
804.73	0.005
804.91	0.005
805.08	0.005
805.26	0.005
805.44	0.005
805.61	0.005
805.79	0.005
805.97	0.005
806.15	0.005
806.32	0.005
806.50	0.005
806.68	0.005
806.85	0.004
807.03	0.005
807.21	0.005
807.38	0.005
807.56	0.005
807.74	0.004
807.91	0.005
808.09	0.005
808.27	0.004
808.44	0.005
808.62	0.005
808.80	0.005
808.97	0.005
809.15	0.005
809.33	0.005
809.50	0.005
809.68	0.005
809.86	0.005
810.03	0.005
810.21	0.005
810.39	0.005
810.56	0.005
810.74	0.005
810.91	0.005
811.09	0.004
811.27	0.004
811.44	0.004
811.62	0.004
811.80	0.004
811.97	0.004
812.15	0.004
812.33	0.004
812.50	0.005
812.68	0.004
812.85	0.005
813.03	0.005
813.21	0.005
813.38	0.005
813.56	0.005
813.74	0.005
813.91	0.005
814.09	0.004
814.26	0.005
814.44	0.005
814.62	0.005
814.79	0.004
814.97	0.005
815.14	0.005
815.32	0.004
815.50	0.005
815.67	0.005
815.85	0.005
816.02	0.005
816.20	0.005
816.38	0.005
816.55	0.005
816.73	0.006
816.90	0.005
817.08	0.005
817.26	0.005
817.43	0.005
817.61	0.005
817.78	0.005
817.96	0.005
818.13	0.005
818.31	0.005
818.49	0.005
818.66	0.005
818.84	0.005
819.01	0.004
819.19	0.005
819.36	0.005
819.54	0.005
819.71	0.005
819.89	0.004
820.07	0.004
820.24	0.004
820.42	0.005
820.59	0.005
820.77	0.005
820.94	0.005
821.12	0.006
821.29	0.005
821.47	0.005
821.64	0.005
821.82	0.006
822.00	0.006
822.17	0.005
822.35	0.005
822.52	0.005
822.70	0.005
822.87	0.005
823.05	0.004
823.22	0.005
823.40	0.004
823.57	0.005
823.75	0.005
823.92	0.005
824.10	0.005
824.27	0.005
824.45	0.005
824.62	0.005
824.80	0.005
824.97	0.005
825.15	0.005
825.32	0.005
825.50	0.005
825.67	0.005
825.85	0.005
826.02	0.006
826.20	0.006
826.37	0.006
826.55	0.006
826.72	0.006
826.90	0.007
827.07	0.007
827.25	0.007
827.42	0.007
827.60	0.006
827.77	0.006
827.95	0.005
828.12	0.006
828.30	0.006
828.47	0.004
828.65	0.004
828.82	0.005
829.00	0.005
829.17	0.005
829.34	0.005
829.52	0.006
829.69	0.006
829.87	0.006
830.04	0.005
830.22	0.006
830.39	0.005
830.57	0.006
830.74	0.005
830.92	0.004
831.09	0.004
831.26	0.004
831.44	0.005
831.61	0.006
831.79	0.006
831.96	0.007
832.14	0.007
832.31	0.008
832.49	0.007
832.66	0.007
832.83	0.009
833.01	0.008
833.18	0.009
833.36	0.007
833.53	0.007
833.70	0.006
833.88	0.006
834.05	0.005
834.23	0.004
834.40	0.004
834.58	0.005
834.75	0.004
834.92	0.004
835.10	0.002
835.27	0.002
835.45	0.001
835.62	0.001
835.79	0.001
835.97	0.001
836.14	0.001
836.32	0.002
836.49	0.001
836.66	0.001
836.84	0.001
837.01	0.001
837.18	0.003
837.36	0.003
837.53	0.004
837.71	0.002
837.88	0.002
838.05	0.001
838.23	0.002
838.40	0.003
838.58	0.002
838.75	0.002
838.92	0.003
839.10	0.001
839.27	0.000
839.44	0.001
839.62	0.002
839.79	0.003
839.96	0.007
840.14	0.006
840.31	0.006
840.48	0.007
840.66	0.009
840.83	0.008
841.01	0.008
841.18	0.010
841.35	0.009
841.53	0.008
841.70	0.005
841.87	0.004
842.05	0.002
842.22	0.000
842.39	0.001
842.57	-0.000
842.74	0.001
842.91	0.002
843.09	0.001
843.26	0.003
843.43	0.004
843.60	0.004
843.78	0.004
843.95	0.005
844.12	0.006
844.30	0.006
844.47	0.006
844.64	0.008
844.82	0.006
844.99	0.006
845.16	0.006
845.34	0.005
845.51	0.006
845.68	0.006
845.85	0.007
846.03	0.006
846.20	0.005
846.37	0.006
846.55	0.007
846.72	0.010
846.89	0.009
847.06	0.008
847.24	0.010
847.41	0.010
847.58	0.010
847.76	0.012
847.93	0.013
848.10	0.013
848.27	0.011
848.45	0.010
848.62	0.009
848.79	0.009
848.97	0.011
849.14	0.008
849.31	0.009
849.48	0.007
849.66	0.004
849.83	0.004
850.00	0.005
850.17	0.004
850.35	0.002
850.52	0.001
850.69	0.003
850.86	0.000
851.04	0.003
851.21	0.003
851.38	0.003
851.55	0.003
851.72	0.004
851.90	0.005
852.07	0.004
852.24	0.004
852.41	0.003
852.59	0.005
852.76	0.006
852.93	0.005
853.10	0.006
853.28	0.008
853.45	0.007
853.62	0.008
853.79	0.006
853.96	0.003
854.14	0.006
854.31	0.008
854.48	0.006
854.65	0.006
854.82	0.007
855.00	0.006
855.17	0.006
855.34	0.009
855.51	0.008
855.68	0.007
855.86	0.011
856.03	0.010
856.20	0.006
856.37	0.001
856.54	0.001
856.72	0.000
856.89	-0.002
857.06	-0.005
857.23	-0.005
857.40	-0.005
857.57	-0.003
857.75	-0.000
857.92	0.001
858.09	0.003
858.26	0.006
858.43	0.004
858.60	0.002
858.78	0.006
858.95	0.007
859.12	0.007
859.29	0.005
859.46	0.004
859.63	0.005
859.81	0.006
859.98	0.008
860.15	0.008
860.32	0.011
860.49	0.009
860.66	0.007
860.83	0.009
861.01	0.005
861.18	0.006
861.35	0.006
861.52	0.003
861.69	0.002
861.86	0.002
862.03	0.002
862.21	0.003
862.38	0.006
862.55	0.006
862.72	0.007
862.89	0.010
863.06	0.008
863.23	0.011
863.40	0.011
863.58	0.006
863.75	0.004
863.92	0.004
864.09	0.002
864.26	0.003
864.43	-0.001
864.60	-0.001
864.77	-0.006
864.94	-0.001
865.11	-0.003
865.29	-0.001
865.46	0.003
865.63	0.005
865.80	0.007
865.97	0.007
866.14	0.008
866.31	0.011
866.48	0.013
866.65	0.020
866.82	0.016
866.99	0.016
867.16	0.010
867.34	0.010
867.51	0.014
867.68	0.012
867.85	0.011
868.02	0.007
868.19	0.010
868.36	0.009
868.53	0.003
868.70	0.005
868.87	0.003
869.04	0.007
869.21	0.005
869.38	-0.001
869.55	-0.001
869.72	-0.001
869.89	0.008
870.06	0.005
870.24	0.008
870.41	0.008
870.58	0.006
870.75	0.011
870.92	0.013
871.09	0.011
871.26	0.014
871.43	0.018
871.60	0.022
871.77	0.013
871.94	0.019
872.11	0.017
872.28	0.021
872.45	0.023
872.62	0.019
872.79	0.015
872.96	0.015
873.13	0.010
873.30	0.007
873.47	0.007
873.64	0.007
873.81	-0.002
873.98	-0.002
874.15	-0.000
874.32	-0.001
874.49	0.003
874.66	0.004
874.83	0.008
875.00	0.007
875.17	0.008
875.34	0.006
875.51	0.012
875.68	0.018
875.85	0.016
876.02	0.011
876.19	0.009
876.36	0.006
876.53	0.010
876.70	0.012
876.87	0.018
877.04	0.017
877.21	0.019
877.38	0.016
877.55	0.014
877.72	0.017
877.89	0.012
878.06	0.011
878.23	0.012
878.39	0.012
878.56	0.014
878.73	0.010
878.90	0.006
879.07	0.004
879.24	0.002
879.41	-0.000
879.58	0.001
879.75	0.003
879.92	0.005
880.09	-0.003
880.26	-0.005
880.43	-0.007
880.60	-0.006
880.77	0.004
880.94	0.003
881.11	0.005
881.27	0.014
881.44	0.009
881.61	0.017
881.78	0.016
881.95	0.021
882.12	0.020
882.29	0.014
882.46	0.013
882.63	0.013
882.80	0.015
882.97	0.016
883.14	0.007
883.30	0.005
883.47	0.001
883.64	0.005
883.81	0.010
883.98	0.010
884.15	0.011
884.32	0.011
884.49	0.009
884.66	0.007
884.82	0.009
884.99	0.008
885.16	0.014
885.33	0.012
885.50	0.009
885.67	0.012
885.84	0.018
886.01	0.016
886.17	0.016
886.34	0.018
886.51	0.025
886.68	0.022
886.85	0.033
887.02	0.035
887.19	0.041
887.36	0.043
887.52	0.034
887.69	0.040
887.86	0.046
888.03	0.048
888.20	0.047
888.37	0.035
888.54	0.028
888.70	0.022
888.87	0.014
889.04	0.004
889.21	0.003
889.38	0.012
889.55	0.002
889.71	-0.026
889.88	-0.066
890.05	-0.027
890.22	0.075
890.39	-0.011
>>>>>End Processed Spectral Data<<<<<
