SpectraSuite Data File
++++++++++++++++++++++++++++++++++++
Date: Mon Jun 15 09:31:40 PDT 2015
User: introlabs
Dark Spectrum Present: Yes
Reference Spectrum Present: Yes
Number of Sampled Component Spectra: 1
Spectrometers: USB4H08886
Integration Time (usec): 44366 (USB4H08886)
Spectra Averaged: 20 (USB4H08886)
Boxcar Smoothing: 5 (USB4H08886)
Correct for Electrical Dark: Yes (USB4H08886)
Strobe/Lamp Enabled: No (USB4H08886)
Correct for Detector Non-linearity: Yes (USB4H08886)
Correct for Stray Light: Yes (USB4H08886)
Number of Pixels in Processed Spectrum: 3648
>>>>>Begin Processed Spectral Data<<<<<
178.14	0.493
178.36	0.493
178.57	0.493
178.79	-0.000
179.01	-0.000
179.22	0.531
179.44	-0.000
179.65	-0.162
179.87	-0.053
180.08	0.160
180.30	0.371
180.52	0.341
180.73	0.292
180.95	0.179
181.16	0.115
181.38	0.072
181.59	0.085
181.81	0.080
182.03	0.082
182.24	0.093
182.46	0.088
182.67	0.071
182.89	0.066
183.10	0.067
183.32	0.058
183.54	0.054
183.75	0.058
183.97	0.066
184.18	0.065
184.40	0.067
184.61	0.073
184.83	0.074
185.04	0.078
185.26	0.077
185.48	0.071
185.69	0.080
185.91	0.074
186.12	0.071
186.34	0.065
186.55	0.063
186.77	0.061
186.98	0.046
187.20	0.036
187.42	0.038
187.63	0.037
187.85	0.050
188.06	0.050
188.28	0.057
188.49	0.059
188.71	0.056
188.92	0.062
189.14	0.061
189.36	0.073
189.57	0.085
189.79	0.077
190.00	0.068
190.22	0.058
190.43	0.060
190.65	0.051
190.86	0.055
191.08	0.059
191.29	0.052
191.51	0.055
191.72	0.054
191.94	0.046
192.16	0.052
192.37	0.058
192.59	0.070
192.80	0.063
193.02	0.076
193.23	0.079
193.45	0.074
193.66	0.077
193.88	0.070
194.09	0.066
194.31	0.073
194.52	0.066
194.74	0.065
194.95	0.052
195.17	0.062
195.38	0.046
195.60	0.035
195.81	0.047
196.03	0.046
196.25	0.058
196.46	0.055
196.68	0.051
196.89	0.057
197.11	0.062
197.32	0.064
197.54	0.055
197.75	0.076
197.97	0.076
198.18	0.069
198.40	0.073
198.61	0.065
198.83	0.061
199.04	0.063
199.26	0.061
199.47	0.058
199.69	0.067
199.90	0.077
200.12	0.064
200.33	0.071
200.55	0.070
200.76	0.066
200.98	0.060
201.19	0.062
201.41	0.066
201.62	0.073
201.84	0.076
202.05	0.072
202.27	0.066
202.48	0.067
202.70	0.058
202.91	0.064
203.13	0.057
203.34	0.050
203.56	0.053
203.77	0.051
203.99	0.045
204.20	0.038
204.42	0.036
204.63	0.039
204.85	0.040
205.06	0.043
205.28	0.038
205.49	0.046
205.71	0.055
205.92	0.061
206.14	0.057
206.35	0.066
206.56	0.073
206.78	0.066
206.99	0.058
207.21	0.060
207.42	0.062
207.64	0.061
207.85	0.065
208.07	0.067
208.28	0.068
208.50	0.076
208.71	0.074
208.93	0.078
209.14	0.090
209.36	0.093
209.57	0.096
209.79	0.103
210.00	0.105
210.22	0.102
210.43	0.102
210.64	0.096
210.86	0.086
211.07	0.083
211.29	0.078
211.50	0.077
211.72	0.080
211.93	0.073
212.15	0.068
212.36	0.061
212.58	0.063
212.79	0.066
213.01	0.061
213.22	0.060
213.43	0.063
213.65	0.062
213.86	0.059
214.08	0.062
214.29	0.067
214.51	0.064
214.72	0.070
214.94	0.067
215.15	0.069
215.36	0.071
215.58	0.081
215.79	0.077
216.01	0.079
216.22	0.086
216.44	0.079
216.65	0.073
216.87	0.079
217.08	0.078
217.29	0.087
217.51	0.083
217.72	0.087
217.94	0.085
218.15	0.089
218.37	0.085
218.58	0.081
218.80	0.085
219.01	0.083
219.22	0.076
219.44	0.076
219.65	0.066
219.87	0.070
220.08	0.070
220.30	0.061
220.51	0.057
220.72	0.058
220.94	0.053
221.15	0.052
221.37	0.051
221.58	0.056
221.79	0.056
222.01	0.053
222.22	0.044
222.44	0.040
222.65	0.042
222.87	0.043
223.08	0.047
223.29	0.056
223.51	0.056
223.72	0.064
223.94	0.062
224.15	0.062
224.36	0.067
224.58	0.066
224.79	0.074
225.01	0.075
225.22	0.075
225.44	0.071
225.65	0.068
225.86	0.072
226.08	0.072
226.29	0.072
226.51	0.075
226.72	0.079
226.93	0.083
227.15	0.079
227.36	0.078
227.58	0.075
227.79	0.077
228.00	0.071
228.22	0.062
228.43	0.060
228.65	0.063
228.86	0.061
229.07	0.058
229.29	0.057
229.50	0.051
229.72	0.052
229.93	0.054
230.14	0.052
230.36	0.053
230.57	0.057
230.78	0.054
231.00	0.050
231.21	0.047
231.43	0.047
231.64	0.047
231.85	0.052
232.07	0.054
232.28	0.053
232.50	0.053
232.71	0.054
232.92	0.054
233.14	0.055
233.35	0.056
233.56	0.056
233.78	0.056
233.99	0.054
234.21	0.053
234.42	0.053
234.63	0.054
234.85	0.053
235.06	0.053
235.27	0.054
235.49	0.055
235.70	0.054
235.91	0.053
236.13	0.055
236.34	0.054
236.56	0.054
236.77	0.053
236.98	0.053
237.20	0.053
237.41	0.052
237.62	0.053
237.84	0.052
238.05	0.052
238.26	0.051
238.48	0.051
238.69	0.053
238.91	0.053
239.12	0.055
239.33	0.054
239.55	0.056
239.76	0.056
239.97	0.056
240.19	0.058
240.40	0.058
240.61	0.060
240.83	0.060
241.04	0.060
241.25	0.061
241.47	0.061
241.68	0.063
241.89	0.063
242.11	0.064
242.32	0.065
242.53	0.065
242.75	0.066
242.96	0.066
243.17	0.067
243.39	0.067
243.60	0.067
243.81	0.067
244.03	0.067
244.24	0.067
244.45	0.068
244.67	0.069
244.88	0.069
245.09	0.070
245.31	0.071
245.52	0.071
245.73	0.072
245.95	0.072
246.16	0.073
246.37	0.074
246.59	0.074
246.80	0.074
247.01	0.075
247.23	0.075
247.44	0.074
247.65	0.075
247.87	0.075
248.08	0.075
248.29	0.075
248.51	0.075
248.72	0.075
248.93	0.075
249.15	0.076
249.36	0.076
249.57	0.076
249.78	0.076
250.00	0.076
250.21	0.077
250.42	0.077
250.64	0.077
250.85	0.078
251.06	0.077
251.28	0.078
251.49	0.077
251.70	0.077
251.92	0.078
252.13	0.078
252.34	0.078
252.55	0.078
252.77	0.078
252.98	0.078
253.19	0.077
253.41	0.078
253.62	0.077
253.83	0.078
254.05	0.077
254.26	0.077
254.47	0.077
254.68	0.077
254.90	0.076
255.11	0.077
255.32	0.077
255.54	0.078
255.75	0.078
255.96	0.078
256.17	0.078
256.39	0.078
256.60	0.078
256.81	0.078
257.03	0.078
257.24	0.078
257.45	0.077
257.66	0.077
257.88	0.076
258.09	0.076
258.30	0.075
258.51	0.075
258.73	0.075
258.94	0.075
259.15	0.075
259.37	0.074
259.58	0.074
259.79	0.073
260.00	0.074
260.22	0.073
260.43	0.073
260.64	0.073
260.85	0.072
261.07	0.072
261.28	0.072
261.49	0.071
261.71	0.071
261.92	0.071
262.13	0.071
262.34	0.071
262.56	0.071
262.77	0.071
262.98	0.070
263.19	0.070
263.41	0.069
263.62	0.069
263.83	0.069
264.04	0.068
264.26	0.068
264.47	0.067
264.68	0.067
264.89	0.067
265.11	0.067
265.32	0.067
265.53	0.066
265.74	0.066
265.96	0.066
266.17	0.066
266.38	0.066
266.59	0.065
266.81	0.065
267.02	0.065
267.23	0.064
267.44	0.063
267.65	0.062
267.87	0.062
268.08	0.061
268.29	0.061
268.50	0.061
268.72	0.060
268.93	0.060
269.14	0.059
269.35	0.059
269.57	0.059
269.78	0.058
269.99	0.058
270.20	0.058
270.41	0.058
270.63	0.058
270.84	0.057
271.05	0.057
271.26	0.057
271.48	0.056
271.69	0.056
271.90	0.056
272.11	0.055
272.32	0.055
272.54	0.054
272.75	0.054
272.96	0.054
273.17	0.054
273.39	0.054
273.60	0.053
273.81	0.053
274.02	0.053
274.23	0.053
274.45	0.053
274.66	0.053
274.87	0.052
275.08	0.052
275.29	0.052
275.51	0.052
275.72	0.052
275.93	0.051
276.14	0.052
276.35	0.052
276.57	0.051
276.78	0.051
276.99	0.051
277.20	0.051
277.41	0.051
277.63	0.051
277.84	0.051
278.05	0.051
278.26	0.052
278.47	0.051
278.69	0.052
278.90	0.052
279.11	0.052
279.32	0.052
279.53	0.052
279.74	0.053
279.96	0.053
280.17	0.053
280.38	0.053
280.59	0.053
280.80	0.053
281.02	0.053
281.23	0.053
281.44	0.053
281.65	0.053
281.86	0.053
282.07	0.053
282.29	0.053
282.50	0.054
282.71	0.054
282.92	0.054
283.13	0.054
283.35	0.055
283.56	0.055
283.77	0.055
283.98	0.055
284.19	0.055
284.40	0.056
284.62	0.056
284.83	0.056
285.04	0.056
285.25	0.057
285.46	0.057
285.67	0.058
285.88	0.058
286.10	0.058
286.31	0.059
286.52	0.060
286.73	0.060
286.94	0.061
287.15	0.062
287.37	0.062
287.58	0.063
287.79	0.063
288.00	0.064
288.21	0.064
288.42	0.065
288.63	0.066
288.85	0.066
289.06	0.067
289.27	0.067
289.48	0.067
289.69	0.068
289.90	0.068
290.11	0.068
290.33	0.069
290.54	0.069
290.75	0.069
290.96	0.070
291.17	0.070
291.38	0.070
291.59	0.070
291.81	0.070
292.02	0.071
292.23	0.071
292.44	0.071
292.65	0.071
292.86	0.071
293.07	0.071
293.28	0.072
293.50	0.072
293.71	0.072
293.92	0.072
294.13	0.073
294.34	0.073
294.55	0.073
294.76	0.073
294.97	0.073
295.19	0.073
295.40	0.073
295.61	0.073
295.82	0.073
296.03	0.073
296.24	0.073
296.45	0.073
296.66	0.073
296.87	0.072
297.09	0.072
297.30	0.072
297.51	0.073
297.72	0.072
297.93	0.072
298.14	0.072
298.35	0.072
298.56	0.072
298.77	0.072
298.99	0.072
299.20	0.072
299.41	0.072
299.62	0.072
299.83	0.072
300.04	0.073
300.25	0.073
300.46	0.072
300.67	0.073
300.88	0.073
301.10	0.072
301.31	0.072
301.52	0.072
301.73	0.072
301.94	0.072
302.15	0.072
302.36	0.071
302.57	0.071
302.78	0.071
302.99	0.071
303.20	0.071
303.41	0.071
303.63	0.071
303.84	0.071
304.05	0.071
304.26	0.071
304.47	0.071
304.68	0.071
304.89	0.071
305.10	0.071
305.31	0.071
305.52	0.071
305.73	0.071
305.94	0.071
306.15	0.071
306.37	0.071
306.58	0.071
306.79	0.071
307.00	0.071
307.21	0.071
307.42	0.071
307.63	0.071
307.84	0.071
308.05	0.070
308.26	0.070
308.47	0.070
308.68	0.070
308.89	0.070
309.10	0.070
309.31	0.070
309.52	0.070
309.73	0.069
309.95	0.069
310.16	0.069
310.37	0.069
310.58	0.069
310.79	0.069
311.00	0.069
311.21	0.069
311.42	0.069
311.63	0.069
311.84	0.069
312.05	0.069
312.26	0.069
312.47	0.069
312.68	0.069
312.89	0.069
313.10	0.069
313.31	0.069
313.52	0.069
313.73	0.069
313.94	0.069
314.15	0.069
314.36	0.069
314.57	0.069
314.78	0.069
314.99	0.069
315.21	0.069
315.42	0.068
315.63	0.069
315.84	0.068
316.05	0.068
316.26	0.068
316.47	0.068
316.68	0.068
316.89	0.068
317.10	0.068
317.31	0.068
317.52	0.068
317.73	0.068
317.94	0.068
318.15	0.068
318.36	0.068
318.57	0.068
318.78	0.068
318.99	0.068
319.20	0.068
319.41	0.068
319.62	0.068
319.83	0.068
320.04	0.068
320.25	0.068
320.46	0.067
320.67	0.067
320.88	0.067
321.09	0.067
321.30	0.067
321.51	0.067
321.72	0.067
321.93	0.067
322.14	0.067
322.35	0.067
322.56	0.067
322.77	0.067
322.98	0.067
323.19	0.067
323.40	0.067
323.61	0.067
323.82	0.067
324.03	0.067
324.24	0.067
324.45	0.067
324.66	0.067
324.87	0.067
325.08	0.067
325.29	0.067
325.50	0.066
325.71	0.066
325.92	0.067
326.13	0.066
326.34	0.066
326.55	0.066
326.76	0.066
326.97	0.066
327.18	0.066
327.39	0.066
327.60	0.066
327.80	0.066
328.01	0.066
328.22	0.066
328.43	0.066
328.64	0.066
328.85	0.066
329.06	0.066
329.27	0.066
329.48	0.066
329.69	0.066
329.90	0.066
330.11	0.066
330.32	0.066
330.53	0.066
330.74	0.066
330.95	0.066
331.16	0.066
331.37	0.066
331.58	0.066
331.79	0.066
332.00	0.066
332.21	0.066
332.42	0.066
332.63	0.066
332.83	0.066
333.04	0.066
333.25	0.065
333.46	0.065
333.67	0.065
333.88	0.065
334.09	0.065
334.30	0.065
334.51	0.065
334.72	0.065
334.93	0.065
335.14	0.065
335.35	0.065
335.56	0.065
335.77	0.065
335.98	0.065
336.18	0.065
336.39	0.065
336.60	0.065
336.81	0.065
337.02	0.065
337.23	0.065
337.44	0.065
337.65	0.065
337.86	0.065
338.07	0.065
338.28	0.065
338.49	0.065
338.70	0.065
338.91	0.065
339.11	0.065
339.32	0.065
339.53	0.065
339.74	0.065
339.95	0.065
340.16	0.065
340.37	0.065
340.58	0.065
340.79	0.065
341.00	0.065
341.21	0.065
341.41	0.065
341.62	0.065
341.83	0.065
342.04	0.064
342.25	0.065
342.46	0.065
342.67	0.065
342.88	0.065
343.09	0.065
343.30	0.065
343.50	0.065
343.71	0.065
343.92	0.065
344.13	0.065
344.34	0.065
344.55	0.065
344.76	0.065
344.97	0.065
345.18	0.065
345.38	0.065
345.59	0.065
345.80	0.065
346.01	0.065
346.22	0.065
346.43	0.065
346.64	0.065
346.85	0.065
347.06	0.065
347.26	0.065
347.47	0.064
347.68	0.064
347.89	0.064
348.10	0.064
348.31	0.064
348.52	0.064
348.73	0.064
348.93	0.064
349.14	0.064
349.35	0.064
349.56	0.064
349.77	0.064
349.98	0.064
350.19	0.064
350.39	0.064
350.60	0.064
350.81	0.064
351.02	0.064
351.23	0.064
351.44	0.064
351.65	0.064
351.86	0.064
352.06	0.064
352.27	0.064
352.48	0.064
352.69	0.064
352.90	0.064
353.11	0.064
353.31	0.064
353.52	0.064
353.73	0.064
353.94	0.064
354.15	0.064
354.36	0.064
354.57	0.064
354.77	0.064
354.98	0.064
355.19	0.064
355.40	0.064
355.61	0.064
355.82	0.064
356.02	0.064
356.23	0.064
356.44	0.064
356.65	0.064
356.86	0.064
357.07	0.064
357.27	0.064
357.48	0.064
357.69	0.064
357.90	0.064
358.11	0.064
358.32	0.064
358.52	0.064
358.73	0.064
358.94	0.064
359.15	0.064
359.36	0.064
359.56	0.064
359.77	0.064
359.98	0.064
360.19	0.064
360.40	0.064
360.61	0.064
360.81	0.064
361.02	0.064
361.23	0.064
361.44	0.064
361.65	0.064
361.85	0.064
362.06	0.064
362.27	0.064
362.48	0.064
362.69	0.064
362.89	0.064
363.10	0.064
363.31	0.064
363.52	0.064
363.73	0.064
363.93	0.064
364.14	0.064
364.35	0.064
364.56	0.063
364.77	0.063
364.97	0.063
365.18	0.063
365.39	0.063
365.60	0.063
365.81	0.063
366.01	0.063
366.22	0.063
366.43	0.063
366.64	0.063
366.84	0.063
367.05	0.063
367.26	0.063
367.47	0.063
367.68	0.063
367.88	0.063
368.09	0.063
368.30	0.063
368.51	0.063
368.71	0.063
368.92	0.063
369.13	0.063
369.34	0.064
369.55	0.064
369.75	0.063
369.96	0.064
370.17	0.063
370.38	0.063
370.58	0.063
370.79	0.063
371.00	0.063
371.21	0.063
371.41	0.063
371.62	0.063
371.83	0.063
372.04	0.063
372.24	0.063
372.45	0.063
372.66	0.063
372.87	0.063
373.07	0.063
373.28	0.063
373.49	0.063
373.70	0.063
373.90	0.063
374.11	0.063
374.32	0.063
374.53	0.063
374.73	0.063
374.94	0.063
375.15	0.063
375.36	0.063
375.56	0.063
375.77	0.063
375.98	0.062
376.19	0.062
376.39	0.062
376.60	0.062
376.81	0.062
377.02	0.062
377.22	0.062
377.43	0.062
377.64	0.062
377.84	0.062
378.05	0.062
378.26	0.062
378.47	0.062
378.67	0.062
378.88	0.062
379.09	0.062
379.30	0.062
379.50	0.062
379.71	0.062
379.92	0.062
380.12	0.062
380.33	0.062
380.54	0.062
380.75	0.062
380.95	0.062
381.16	0.062
381.37	0.062
381.57	0.062
381.78	0.062
381.99	0.062
382.20	0.062
382.40	0.062
382.61	0.062
382.82	0.062
383.02	0.062
383.23	0.062
383.44	0.062
383.64	0.062
383.85	0.062
384.06	0.062
384.27	0.062
384.47	0.062
384.68	0.062
384.89	0.062
385.09	0.061
385.30	0.061
385.51	0.061
385.71	0.061
385.92	0.061
386.13	0.061
386.33	0.061
386.54	0.061
386.75	0.061
386.95	0.061
387.16	0.061
387.37	0.061
387.58	0.061
387.78	0.061
387.99	0.061
388.20	0.061
388.40	0.061
388.61	0.061
388.82	0.061
389.02	0.061
389.23	0.061
389.44	0.061
389.64	0.061
389.85	0.061
390.06	0.061
390.26	0.061
390.47	0.061
390.68	0.060
390.88	0.060
391.09	0.061
391.30	0.061
391.50	0.061
391.71	0.060
391.92	0.060
392.12	0.060
392.33	0.060
392.53	0.060
392.74	0.061
392.95	0.061
393.15	0.061
393.36	0.061
393.57	0.061
393.77	0.060
393.98	0.061
394.19	0.061
394.39	0.061
394.60	0.061
394.81	0.061
395.01	0.061
395.22	0.061
395.43	0.060
395.63	0.060
395.84	0.060
396.04	0.060
396.25	0.060
396.46	0.060
396.66	0.060
396.87	0.060
397.08	0.060
397.28	0.060
397.49	0.060
397.69	0.060
397.90	0.060
398.11	0.060
398.31	0.060
398.52	0.060
398.73	0.060
398.93	0.060
399.14	0.060
399.34	0.060
399.55	0.060
399.76	0.060
399.96	0.060
400.17	0.060
400.37	0.060
400.58	0.060
400.79	0.060
400.99	0.060
401.20	0.060
401.41	0.060
401.61	0.060
401.82	0.060
402.02	0.060
402.23	0.060
402.44	0.060
402.64	0.060
402.85	0.060
403.05	0.059
403.26	0.059
403.47	0.059
403.67	0.059
403.88	0.059
404.08	0.059
404.29	0.059
404.50	0.059
404.70	0.059
404.91	0.059
405.11	0.059
405.32	0.059
405.52	0.059
405.73	0.059
405.94	0.059
406.14	0.059
406.35	0.059
406.55	0.059
406.76	0.058
406.97	0.058
407.17	0.058
407.38	0.059
407.58	0.059
407.79	0.058
407.99	0.059
408.20	0.059
408.41	0.059
408.61	0.059
408.82	0.059
409.02	0.059
409.23	0.059
409.43	0.059
409.64	0.058
409.84	0.059
410.05	0.059
410.26	0.058
410.46	0.058
410.67	0.058
410.87	0.058
411.08	0.058
411.28	0.058
411.49	0.058
411.69	0.058
411.90	0.058
412.11	0.058
412.31	0.058
412.52	0.058
412.72	0.058
412.93	0.058
413.13	0.058
413.34	0.058
413.54	0.058
413.75	0.058
413.95	0.058
414.16	0.058
414.37	0.058
414.57	0.058
414.78	0.058
414.98	0.058
415.19	0.058
415.39	0.058
415.60	0.058
415.80	0.058
416.01	0.058
416.21	0.058
416.42	0.058
416.62	0.058
416.83	0.058
417.03	0.057
417.24	0.057
417.44	0.057
417.65	0.057
417.86	0.057
418.06	0.057
418.27	0.057
418.47	0.057
418.68	0.057
418.88	0.057
419.09	0.057
419.29	0.057
419.50	0.057
419.70	0.057
419.91	0.057
420.11	0.057
420.32	0.057
420.52	0.057
420.73	0.057
420.93	0.057
421.14	0.057
421.34	0.057
421.55	0.057
421.75	0.057
421.96	0.057
422.16	0.057
422.37	0.057
422.57	0.057
422.78	0.057
422.98	0.057
423.19	0.057
423.39	0.057
423.60	0.057
423.80	0.057
424.01	0.057
424.21	0.057
424.42	0.057
424.62	0.057
424.83	0.057
425.03	0.057
425.23	0.057
425.44	0.057
425.64	0.057
425.85	0.057
426.05	0.057
426.26	0.056
426.46	0.056
426.67	0.056
426.87	0.056
427.08	0.056
427.28	0.056
427.49	0.056
427.69	0.056
427.90	0.056
428.10	0.056
428.31	0.055
428.51	0.055
428.71	0.055
428.92	0.055
429.12	0.055
429.33	0.055
429.53	0.055
429.74	0.056
429.94	0.056
430.15	0.056
430.35	0.056
430.56	0.056
430.76	0.056
430.96	0.056
431.17	0.056
431.37	0.056
431.58	0.056
431.78	0.056
431.99	0.056
432.19	0.057
432.40	0.057
432.60	0.057
432.80	0.057
433.01	0.057
433.21	0.056
433.42	0.056
433.62	0.056
433.83	0.056
434.03	0.056
434.23	0.056
434.44	0.056
434.64	0.056
434.85	0.056
435.05	0.055
435.26	0.055
435.46	0.055
435.66	0.055
435.87	0.055
436.07	0.055
436.28	0.055
436.48	0.055
436.69	0.055
436.89	0.055
437.09	0.055
437.30	0.055
437.50	0.055
437.71	0.055
437.91	0.055
438.11	0.055
438.32	0.055
438.52	0.055
438.73	0.055
438.93	0.055
439.13	0.055
439.34	0.055
439.54	0.055
439.75	0.055
439.95	0.055
440.15	0.055
440.36	0.055
440.56	0.055
440.77	0.055
440.97	0.055
441.17	0.055
441.38	0.055
441.58	0.055
441.79	0.055
441.99	0.055
442.19	0.054
442.40	0.054
442.60	0.054
442.81	0.054
443.01	0.054
443.21	0.054
443.42	0.054
443.62	0.054
443.82	0.054
444.03	0.054
444.23	0.054
444.44	0.055
444.64	0.055
444.84	0.055
445.05	0.055
445.25	0.055
445.45	0.055
445.66	0.055
445.86	0.055
446.06	0.055
446.27	0.055
446.47	0.055
446.68	0.055
446.88	0.054
447.08	0.054
447.29	0.054
447.49	0.054
447.69	0.054
447.90	0.054
448.10	0.054
448.30	0.054
448.51	0.054
448.71	0.054
448.91	0.054
449.12	0.054
449.32	0.054
449.52	0.054
449.73	0.054
449.93	0.054
450.14	0.054
450.34	0.054
450.54	0.054
450.75	0.054
450.95	0.054
451.15	0.054
451.36	0.054
451.56	0.054
451.76	0.054
451.97	0.054
452.17	0.054
452.37	0.053
452.58	0.053
452.78	0.053
452.98	0.053
453.19	0.053
453.39	0.053
453.59	0.053
453.79	0.053
454.00	0.053
454.20	0.053
454.40	0.053
454.61	0.053
454.81	0.053
455.01	0.053
455.22	0.053
455.42	0.053
455.62	0.053
455.83	0.053
456.03	0.053
456.23	0.053
456.44	0.053
456.64	0.053
456.84	0.053
457.04	0.053
457.25	0.053
457.45	0.053
457.65	0.053
457.86	0.053
458.06	0.053
458.26	0.053
458.47	0.053
458.67	0.053
458.87	0.053
459.07	0.053
459.28	0.052
459.48	0.053
459.68	0.053
459.89	0.053
460.09	0.053
460.29	0.053
460.49	0.053
460.70	0.053
460.90	0.053
461.10	0.053
461.31	0.053
461.51	0.053
461.71	0.053
461.91	0.053
462.12	0.053
462.32	0.053
462.52	0.053
462.72	0.053
462.93	0.053
463.13	0.052
463.33	0.052
463.53	0.052
463.74	0.052
463.94	0.052
464.14	0.052
464.35	0.052
464.55	0.052
464.75	0.052
464.95	0.052
465.16	0.052
465.36	0.052
465.56	0.052
465.76	0.052
465.97	0.053
466.17	0.053
466.37	0.053
466.57	0.053
466.78	0.053
466.98	0.053
467.18	0.053
467.38	0.053
467.59	0.053
467.79	0.053
467.99	0.053
468.19	0.053
468.39	0.053
468.60	0.053
468.80	0.053
469.00	0.053
469.20	0.052
469.41	0.052
469.61	0.052
469.81	0.052
470.01	0.052
470.22	0.052
470.42	0.052
470.62	0.052
470.82	0.052
471.02	0.052
471.23	0.052
471.43	0.052
471.63	0.052
471.83	0.052
472.04	0.052
472.24	0.052
472.44	0.051
472.64	0.051
472.84	0.051
473.05	0.051
473.25	0.051
473.45	0.051
473.65	0.051
473.85	0.051
474.06	0.051
474.26	0.051
474.46	0.051
474.66	0.051
474.86	0.051
475.07	0.051
475.27	0.051
475.47	0.051
475.67	0.051
475.87	0.051
476.08	0.052
476.28	0.052
476.48	0.052
476.68	0.052
476.88	0.052
477.09	0.052
477.29	0.052
477.49	0.052
477.69	0.051
477.89	0.051
478.09	0.051
478.30	0.051
478.50	0.051
478.70	0.051
478.90	0.051
479.10	0.050
479.31	0.050
479.51	0.051
479.71	0.050
479.91	0.051
480.11	0.051
480.31	0.051
480.52	0.051
480.72	0.051
480.92	0.051
481.12	0.051
481.32	0.051
481.52	0.051
481.72	0.050
481.93	0.050
482.13	0.050
482.33	0.050
482.53	0.050
482.73	0.050
482.93	0.050
483.14	0.050
483.34	0.050
483.54	0.050
483.74	0.050
483.94	0.050
484.14	0.050
484.34	0.050
484.55	0.050
484.75	0.050
484.95	0.050
485.15	0.050
485.35	0.050
485.55	0.050
485.75	0.050
485.96	0.050
486.16	0.050
486.36	0.050
486.56	0.050
486.76	0.050
486.96	0.050
487.16	0.051
487.36	0.051
487.57	0.051
487.77	0.051
487.97	0.051
488.17	0.051
488.37	0.051
488.57	0.051
488.77	0.051
488.97	0.051
489.18	0.051
489.38	0.051
489.58	0.051
489.78	0.051
489.98	0.051
490.18	0.051
490.38	0.051
490.58	0.051
490.78	0.050
490.98	0.050
491.19	0.050
491.39	0.050
491.59	0.050
491.79	0.050
491.99	0.050
492.19	0.050
492.39	0.050
492.59	0.050
492.79	0.050
492.99	0.050
493.20	0.050
493.40	0.050
493.60	0.050
493.80	0.050
494.00	0.050
494.20	0.050
494.40	0.050
494.60	0.050
494.80	0.050
495.00	0.050
495.20	0.050
495.40	0.050
495.61	0.050
495.81	0.050
496.01	0.050
496.21	0.050
496.41	0.050
496.61	0.050
496.81	0.050
497.01	0.050
497.21	0.051
497.41	0.051
497.61	0.050
497.81	0.051
498.01	0.051
498.21	0.051
498.41	0.051
498.61	0.051
498.82	0.050
499.02	0.050
499.22	0.050
499.42	0.050
499.62	0.050
499.82	0.050
500.02	0.050
500.22	0.050
500.42	0.050
500.62	0.050
500.82	0.050
501.02	0.050
501.22	0.050
501.42	0.050
501.62	0.050
501.82	0.050
502.02	0.050
502.22	0.050
502.42	0.050
502.62	0.050
502.82	0.050
503.02	0.050
503.22	0.050
503.42	0.050
503.63	0.050
503.83	0.050
504.03	0.050
504.23	0.050
504.43	0.050
504.63	0.050
504.83	0.050
505.03	0.050
505.23	0.050
505.43	0.050
505.63	0.050
505.83	0.050
506.03	0.050
506.23	0.050
506.43	0.050
506.63	0.050
506.83	0.050
507.03	0.050
507.23	0.050
507.43	0.050
507.63	0.050
507.83	0.050
508.03	0.050
508.23	0.050
508.43	0.050
508.63	0.050
508.83	0.050
509.03	0.050
509.23	0.050
509.43	0.050
509.63	0.050
509.83	0.050
510.03	0.050
510.23	0.050
510.43	0.050
510.63	0.050
510.83	0.050
511.03	0.050
511.23	0.050
511.43	0.050
511.63	0.050
511.83	0.050
512.03	0.050
512.22	0.050
512.42	0.050
512.62	0.050
512.82	0.050
513.02	0.050
513.22	0.050
513.42	0.050
513.62	0.050
513.82	0.050
514.02	0.050
514.22	0.050
514.42	0.050
514.62	0.050
514.82	0.050
515.02	0.050
515.22	0.050
515.42	0.050
515.62	0.050
515.82	0.050
516.02	0.049
516.22	0.049
516.42	0.049
516.62	0.049
516.82	0.049
517.01	0.050
517.21	0.050
517.41	0.050
517.61	0.050
517.81	0.050
518.01	0.050
518.21	0.050
518.41	0.050
518.61	0.050
518.81	0.050
519.01	0.050
519.21	0.050
519.41	0.050
519.61	0.050
519.81	0.050
520.00	0.050
520.20	0.050
520.40	0.050
520.60	0.050
520.80	0.050
521.00	0.050
521.20	0.050
521.40	0.050
521.60	0.050
521.80	0.050
522.00	0.050
522.20	0.050
522.39	0.049
522.59	0.049
522.79	0.049
522.99	0.049
523.19	0.049
523.39	0.049
523.59	0.049
523.79	0.049
523.99	0.049
524.19	0.049
524.38	0.049
524.58	0.049
524.78	0.049
524.98	0.049
525.18	0.049
525.38	0.049
525.58	0.049
525.78	0.049
525.98	0.049
526.18	0.049
526.37	0.049
526.57	0.049
526.77	0.049
526.97	0.049
527.17	0.049
527.37	0.049
527.57	0.049
527.77	0.049
527.96	0.049
528.16	0.049
528.36	0.049
528.56	0.049
528.76	0.049
528.96	0.049
529.16	0.049
529.36	0.049
529.55	0.049
529.75	0.049
529.95	0.049
530.15	0.049
530.35	0.049
530.55	0.049
530.75	0.049
530.94	0.049
531.14	0.049
531.34	0.049
531.54	0.049
531.74	0.049
531.94	0.049
532.13	0.049
532.33	0.048
532.53	0.048
532.73	0.048
532.93	0.048
533.13	0.048
533.33	0.048
533.52	0.048
533.72	0.048
533.92	0.049
534.12	0.049
534.32	0.049
534.52	0.049
534.71	0.049
534.91	0.049
535.11	0.049
535.31	0.049
535.51	0.049
535.71	0.049
535.90	0.048
536.10	0.049
536.30	0.049
536.50	0.049
536.70	0.049
536.89	0.049
537.09	0.049
537.29	0.049
537.49	0.049
537.69	0.049
537.89	0.049
538.08	0.049
538.28	0.049
538.48	0.049
538.68	0.049
538.88	0.049
539.07	0.048
539.27	0.048
539.47	0.049
539.67	0.049
539.87	0.049
540.06	0.049
540.26	0.049
540.46	0.049
540.66	0.049
540.86	0.049
541.05	0.049
541.25	0.049
541.45	0.049
541.65	0.049
541.84	0.049
542.04	0.049
542.24	0.049
542.44	0.048
542.64	0.048
542.83	0.048
543.03	0.048
543.23	0.048
543.43	0.048
543.62	0.048
543.82	0.048
544.02	0.048
544.22	0.048
544.42	0.048
544.61	0.048
544.81	0.048
545.01	0.048
545.21	0.048
545.40	0.048
545.60	0.048
545.80	0.049
546.00	0.049
546.19	0.049
546.39	0.049
546.59	0.049
546.79	0.049
546.98	0.049
547.18	0.049
547.38	0.049
547.58	0.049
547.77	0.049
547.97	0.049
548.17	0.048
548.37	0.048
548.56	0.048
548.76	0.048
548.96	0.048
549.16	0.049
549.35	0.048
549.55	0.049
549.75	0.049
549.95	0.049
550.14	0.049
550.34	0.048
550.54	0.048
550.73	0.048
550.93	0.048
551.13	0.048
551.33	0.048
551.52	0.048
551.72	0.048
551.92	0.048
552.12	0.048
552.31	0.048
552.51	0.048
552.71	0.048
552.90	0.048
553.10	0.048
553.30	0.048
553.50	0.048
553.69	0.048
553.89	0.048
554.09	0.048
554.28	0.048
554.48	0.048
554.68	0.048
554.87	0.048
555.07	0.048
555.27	0.048
555.47	0.049
555.66	0.048
555.86	0.048
556.06	0.049
556.25	0.049
556.45	0.049
556.65	0.049
556.84	0.049
557.04	0.049
557.24	0.049
557.43	0.049
557.63	0.048
557.83	0.048
558.02	0.048
558.22	0.048
558.42	0.048
558.61	0.048
558.81	0.047
559.01	0.047
559.21	0.047
559.40	0.047
559.60	0.047
559.80	0.047
559.99	0.047
560.19	0.047
560.39	0.047
560.58	0.047
560.78	0.047
560.97	0.047
561.17	0.047
561.37	0.047
561.56	0.047
561.76	0.047
561.96	0.047
562.15	0.048
562.35	0.048
562.55	0.048
562.74	0.048
562.94	0.048
563.14	0.048
563.33	0.048
563.53	0.048
563.73	0.048
563.92	0.048
564.12	0.048
564.31	0.048
564.51	0.048
564.71	0.048
564.90	0.048
565.10	0.048
565.30	0.047
565.49	0.048
565.69	0.047
565.89	0.047
566.08	0.047
566.28	0.047
566.47	0.047
566.67	0.047
566.87	0.047
567.06	0.046
567.26	0.046
567.46	0.046
567.65	0.046
567.85	0.046
568.04	0.046
568.24	0.045
568.44	0.045
568.63	0.045
568.83	0.045
569.02	0.045
569.22	0.045
569.42	0.045
569.61	0.045
569.81	0.045
570.00	0.045
570.20	0.045
570.40	0.045
570.59	0.045
570.79	0.045
570.98	0.045
571.18	0.045
571.38	0.045
571.57	0.045
571.77	0.045
571.96	0.045
572.16	0.045
572.35	0.046
572.55	0.046
572.75	0.046
572.94	0.046
573.14	0.046
573.33	0.047
573.53	0.047
573.73	0.047
573.92	0.047
574.12	0.047
574.31	0.047
574.51	0.047
574.70	0.046
574.90	0.045
575.09	0.042
575.29	0.040
575.49	0.038
575.68	0.036
575.88	0.033
576.07	0.031
576.27	0.028
576.46	0.026
576.66	0.024
576.86	0.022
577.05	0.020
577.25	0.019
577.44	0.019
577.64	0.018
577.83	0.017
578.03	0.016
578.22	0.014
578.42	0.012
578.61	0.010
578.81	0.009
579.00	0.007
579.20	0.006
579.40	0.004
579.59	0.003
579.79	0.002
579.98	0.000
580.18	-0.000
580.37	-0.000
580.57	-0.000
580.76	-0.000
580.96	-0.000
581.15	0.000
581.35	0.000
581.54	0.000
581.74	0.000
581.93	0.000
582.13	0.000
582.32	0.000
582.52	0.000
582.71	0.001
582.91	0.002
583.10	0.004
583.30	0.006
583.49	0.009
583.69	0.012
583.88	0.015
584.08	0.018
584.27	0.022
584.47	0.025
584.66	0.028
584.86	0.030
585.05	0.031
585.25	0.032
585.44	0.032
585.64	0.032
585.83	0.031
586.03	0.031
586.22	0.032
586.42	0.033
586.61	0.034
586.81	0.036
587.00	0.037
587.20	0.039
587.39	0.041
587.59	0.042
587.78	0.044
587.98	0.046
588.17	0.047
588.37	0.048
588.56	0.047
588.76	0.047
588.95	0.047
589.15	0.047
589.34	0.046
589.54	0.046
589.73	0.046
589.92	0.046
590.12	0.045
590.31	0.045
590.51	0.045
590.70	0.045
590.90	0.044
591.09	0.045
591.29	0.044
591.48	0.044
591.68	0.044
591.87	0.045
592.06	0.045
592.26	0.045
592.45	0.045
592.65	0.045
592.84	0.045
593.04	0.045
593.23	0.045
593.43	0.046
593.62	0.046
593.81	0.046
594.01	0.046
594.20	0.046
594.40	0.046
594.59	0.047
594.79	0.047
594.98	0.047
595.17	0.047
595.37	0.047
595.56	0.046
595.76	0.046
595.95	0.046
596.14	0.045
596.34	0.045
596.53	0.045
596.73	0.044
596.92	0.044
597.12	0.044
597.31	0.043
597.50	0.043
597.70	0.043
597.89	0.044
598.09	0.044
598.28	0.044
598.47	0.044
598.67	0.044
598.86	0.044
599.06	0.044
599.25	0.045
599.44	0.045
599.64	0.045
599.83	0.045
600.03	0.045
600.22	0.046
600.41	0.046
600.61	0.046
600.80	0.046
601.00	0.046
601.19	0.046
601.38	0.046
601.58	0.046
601.77	0.046
601.96	0.046
602.16	0.046
602.35	0.046
602.55	0.046
602.74	0.046
602.93	0.045
603.13	0.045
603.32	0.045
603.51	0.044
603.71	0.044
603.90	0.044
604.09	0.043
604.29	0.043
604.48	0.043
604.68	0.043
604.87	0.043
605.06	0.043
605.26	0.043
605.45	0.043
605.64	0.043
605.84	0.043
606.03	0.044
606.22	0.044
606.42	0.044
606.61	0.045
606.80	0.045
607.00	0.045
607.19	0.045
607.38	0.045
607.58	0.045
607.77	0.046
607.96	0.046
608.16	0.046
608.35	0.046
608.54	0.046
608.74	0.046
608.93	0.047
609.12	0.046
609.32	0.046
609.51	0.047
609.70	0.046
609.90	0.046
610.09	0.046
610.28	0.046
610.48	0.046
610.67	0.045
610.86	0.045
611.06	0.045
611.25	0.045
611.44	0.045
611.64	0.044
611.83	0.044
612.02	0.044
612.21	0.044
612.41	0.044
612.60	0.044
612.79	0.044
612.99	0.044
613.18	0.044
613.37	0.044
613.57	0.044
613.76	0.045
613.95	0.045
614.14	0.045
614.34	0.045
614.53	0.045
614.72	0.045
614.92	0.045
615.11	0.045
615.30	0.045
615.49	0.046
615.69	0.046
615.88	0.046
616.07	0.046
616.26	0.046
616.46	0.046
616.65	0.046
616.84	0.046
617.04	0.047
617.23	0.047
617.42	0.047
617.61	0.046
617.81	0.047
618.00	0.046
618.19	0.046
618.38	0.046
618.58	0.046
618.77	0.046
618.96	0.046
619.15	0.046
619.35	0.046
619.54	0.046
619.73	0.046
619.92	0.045
620.12	0.045
620.31	0.045
620.50	0.045
620.69	0.045
620.89	0.045
621.08	0.045
621.27	0.045
621.46	0.045
621.66	0.045
621.85	0.045
622.04	0.045
622.23	0.045
622.43	0.045
622.62	0.045
622.81	0.045
623.00	0.045
623.19	0.045
623.39	0.046
623.58	0.046
623.77	0.046
623.96	0.046
624.16	0.046
624.35	0.046
624.54	0.046
624.73	0.046
624.92	0.046
625.12	0.046
625.31	0.046
625.50	0.046
625.69	0.046
625.88	0.046
626.08	0.046
626.27	0.046
626.46	0.046
626.65	0.046
626.84	0.046
627.04	0.046
627.23	0.046
627.42	0.046
627.61	0.046
627.80	0.046
628.00	0.046
628.19	0.046
628.38	0.046
628.57	0.046
628.76	0.046
628.96	0.046
629.15	0.046
629.34	0.046
629.53	0.046
629.72	0.046
629.91	0.046
630.11	0.047
630.30	0.046
630.49	0.047
630.68	0.047
630.87	0.047
631.06	0.047
631.26	0.047
631.45	0.047
631.64	0.047
631.83	0.047
632.02	0.047
632.21	0.046
632.41	0.047
632.60	0.047
632.79	0.046
632.98	0.046
633.17	0.046
633.36	0.046
633.55	0.046
633.75	0.046
633.94	0.046
634.13	0.046
634.32	0.046
634.51	0.046
634.70	0.046
634.89	0.046
635.09	0.046
635.28	0.046
635.47	0.046
635.66	0.046
635.85	0.047
636.04	0.047
636.23	0.047
636.43	0.047
636.62	0.047
636.81	0.047
637.00	0.047
637.19	0.047
637.38	0.047
637.57	0.047
637.76	0.047
637.95	0.047
638.15	0.047
638.34	0.047
638.53	0.047
638.72	0.047
638.91	0.047
639.10	0.047
639.29	0.047
639.48	0.047
639.67	0.047
639.87	0.047
640.06	0.047
640.25	0.047
640.44	0.047
640.63	0.047
640.82	0.046
641.01	0.047
641.20	0.046
641.39	0.046
641.58	0.047
641.78	0.047
641.97	0.047
642.16	0.047
642.35	0.047
642.54	0.047
642.73	0.047
642.92	0.047
643.11	0.047
643.30	0.047
643.49	0.047
643.68	0.047
643.87	0.047
644.06	0.047
644.25	0.047
644.45	0.047
644.64	0.047
644.83	0.047
645.02	0.047
645.21	0.047
645.40	0.047
645.59	0.046
645.78	0.046
645.97	0.046
646.16	0.046
646.35	0.046
646.54	0.046
646.73	0.046
646.92	0.045
647.11	0.045
647.30	0.045
647.49	0.045
647.68	0.045
647.88	0.045
648.07	0.045
648.26	0.045
648.45	0.045
648.64	0.045
648.83	0.045
649.02	0.045
649.21	0.045
649.40	0.045
649.59	0.046
649.78	0.046
649.97	0.046
650.16	0.046
650.35	0.046
650.54	0.046
650.73	0.046
650.92	0.047
651.11	0.047
651.30	0.046
651.49	0.046
651.68	0.046
651.87	0.046
652.06	0.046
652.25	0.046
652.44	0.046
652.63	0.044
652.82	0.043
653.01	0.042
653.20	0.041
653.39	0.041
653.58	0.040
653.77	0.040
653.96	0.039
654.15	0.039
654.34	0.039
654.53	0.039
654.72	0.040
654.91	0.041
655.10	0.041
655.29	0.042
655.48	0.042
655.67	0.042
655.86	0.043
656.05	0.043
656.24	0.043
656.43	0.043
656.62	0.043
656.81	0.044
657.00	0.045
657.19	0.046
657.38	0.046
657.57	0.047
657.76	0.048
657.95	0.048
658.14	0.049
658.33	0.049
658.51	0.049
658.70	0.050
658.89	0.050
659.08	0.049
659.27	0.048
659.46	0.047
659.65	0.047
659.84	0.047
660.03	0.046
660.22	0.046
660.41	0.046
660.60	0.046
660.79	0.046
660.98	0.046
661.17	0.046
661.36	0.046
661.55	0.046
661.74	0.046
661.92	0.046
662.11	0.046
662.30	0.046
662.49	0.046
662.68	0.045
662.87	0.045
663.06	0.045
663.25	0.045
663.44	0.046
663.63	0.046
663.82	0.045
664.01	0.046
664.20	0.046
664.38	0.046
664.57	0.046
664.76	0.046
664.95	0.046
665.14	0.046
665.33	0.045
665.52	0.046
665.71	0.046
665.90	0.046
666.09	0.045
666.28	0.045
666.46	0.045
666.65	0.045
666.84	0.045
667.03	0.045
667.22	0.045
667.41	0.045
667.60	0.045
667.79	0.045
667.98	0.045
668.16	0.045
668.35	0.045
668.54	0.045
668.73	0.045
668.92	0.045
669.11	0.045
669.30	0.045
669.49	0.045
669.67	0.045
669.86	0.045
670.05	0.044
670.24	0.044
670.43	0.044
670.62	0.044
670.81	0.044
671.00	0.044
671.18	0.044
671.37	0.044
671.56	0.044
671.75	0.044
671.94	0.044
672.13	0.044
672.32	0.044
672.50	0.044
672.69	0.045
672.88	0.045
673.07	0.045
673.26	0.045
673.45	0.045
673.63	0.045
673.82	0.045
674.01	0.045
674.20	0.045
674.39	0.045
674.58	0.045
674.76	0.045
674.95	0.045
675.14	0.045
675.33	0.045
675.52	0.045
675.71	0.045
675.89	0.045
676.08	0.045
676.27	0.045
676.46	0.045
676.65	0.045
676.84	0.045
677.02	0.045
677.21	0.045
677.40	0.045
677.59	0.045
677.78	0.045
677.96	0.045
678.15	0.045
678.34	0.045
678.53	0.045
678.72	0.045
678.90	0.045
679.09	0.045
679.28	0.045
679.47	0.045
679.66	0.044
679.84	0.044
680.03	0.044
680.22	0.044
680.41	0.044
680.60	0.044
680.78	0.044
680.97	0.044
681.16	0.044
681.35	0.044
681.53	0.044
681.72	0.044
681.91	0.044
682.10	0.044
682.29	0.044
682.47	0.044
682.66	0.044
682.85	0.044
683.04	0.044
683.22	0.044
683.41	0.044
683.60	0.044
683.79	0.044
683.97	0.044
684.16	0.044
684.35	0.044
684.54	0.044
684.72	0.044
684.91	0.045
685.10	0.044
685.29	0.044
685.47	0.044
685.66	0.044
685.85	0.045
686.04	0.044
686.22	0.044
686.41	0.045
686.60	0.044
686.79	0.045
686.97	0.045
687.16	0.045
687.35	0.045
687.54	0.045
687.72	0.045
687.91	0.045
688.10	0.044
688.29	0.044
688.47	0.044
688.66	0.044
688.85	0.044
689.03	0.044
689.22	0.044
689.41	0.044
689.60	0.044
689.78	0.044
689.97	0.044
690.16	0.044
690.34	0.044
690.53	0.044
690.72	0.044
690.91	0.044
691.09	0.045
691.28	0.044
691.47	0.044
691.65	0.044
691.84	0.044
692.03	0.044
692.21	0.045
692.40	0.045
692.59	0.045
692.77	0.045
692.96	0.045
693.15	0.045
693.34	0.045
693.52	0.045
693.71	0.045
693.90	0.045
694.08	0.044
694.27	0.044
694.46	0.044
694.64	0.044
694.83	0.044
695.02	0.044
695.20	0.044
695.39	0.044
695.58	0.044
695.76	0.044
695.95	0.044
696.14	0.044
696.32	0.044
696.51	0.044
696.70	0.044
696.88	0.044
697.07	0.044
697.26	0.044
697.44	0.044
697.63	0.044
697.81	0.044
698.00	0.044
698.19	0.044
698.37	0.044
698.56	0.044
698.75	0.045
698.93	0.045
699.12	0.045
699.31	0.045
699.49	0.045
699.68	0.045
699.87	0.045
700.05	0.045
700.24	0.045
700.42	0.045
700.61	0.044
700.80	0.044
700.98	0.044
701.17	0.044
701.36	0.044
701.54	0.045
701.73	0.045
701.91	0.045
702.10	0.045
702.29	0.045
702.47	0.045
702.66	0.045
702.84	0.045
703.03	0.045
703.22	0.045
703.40	0.045
703.59	0.045
703.77	0.045
703.96	0.045
704.15	0.045
704.33	0.045
704.52	0.045
704.70	0.045
704.89	0.044
705.08	0.044
705.26	0.044
705.45	0.044
705.63	0.043
705.82	0.043
706.00	0.043
706.19	0.043
706.38	0.043
706.56	0.043
706.75	0.043
706.93	0.043
707.12	0.043
707.30	0.043
707.49	0.043
707.68	0.043
707.86	0.043
708.05	0.043
708.23	0.043
708.42	0.043
708.60	0.043
708.79	0.043
708.98	0.043
709.16	0.044
709.35	0.044
709.53	0.044
709.72	0.044
709.90	0.044
710.09	0.044
710.27	0.044
710.46	0.044
710.64	0.045
710.83	0.044
711.02	0.044
711.20	0.044
711.39	0.044
711.57	0.044
711.76	0.044
711.94	0.044
712.13	0.044
712.31	0.044
712.50	0.044
712.68	0.043
712.87	0.043
713.05	0.043
713.24	0.043
713.42	0.043
713.61	0.043
713.79	0.043
713.98	0.043
714.16	0.043
714.35	0.043
714.54	0.043
714.72	0.043
714.91	0.043
715.09	0.043
715.28	0.043
715.46	0.043
715.65	0.043
715.83	0.043
716.02	0.043
716.20	0.043
716.39	0.043
716.57	0.043
716.76	0.043
716.94	0.043
717.12	0.043
717.31	0.043
717.49	0.043
717.68	0.043
717.86	0.043
718.05	0.043
718.23	0.043
718.42	0.043
718.60	0.043
718.79	0.043
718.97	0.043
719.16	0.043
719.34	0.043
719.53	0.043
719.71	0.043
719.90	0.043
720.08	0.043
720.27	0.043
720.45	0.043
720.63	0.043
720.82	0.043
721.00	0.043
721.19	0.043
721.37	0.043
721.56	0.043
721.74	0.043
721.93	0.043
722.11	0.044
722.30	0.044
722.48	0.044
722.66	0.044
722.85	0.044
723.03	0.043
723.22	0.043
723.40	0.043
723.59	0.043
723.77	0.043
723.95	0.043
724.14	0.043
724.32	0.043
724.51	0.042
724.69	0.042
724.88	0.042
725.06	0.042
725.24	0.042
725.43	0.042
725.61	0.042
725.80	0.042
725.98	0.042
726.16	0.042
726.35	0.042
726.53	0.041
726.72	0.042
726.90	0.042
727.09	0.042
727.27	0.041
727.45	0.041
727.64	0.041
727.82	0.041
728.01	0.042
728.19	0.042
728.37	0.041
728.56	0.041
728.74	0.041
728.92	0.041
729.11	0.041
729.29	0.041
729.48	0.041
729.66	0.041
729.84	0.040
730.03	0.040
730.21	0.040
730.40	0.040
730.58	0.040
730.76	0.040
730.95	0.040
731.13	0.040
731.31	0.040
731.50	0.040
731.68	0.040
731.86	0.040
732.05	0.040
732.23	0.040
732.42	0.040
732.60	0.040
732.78	0.040
732.97	0.040
733.15	0.040
733.33	0.040
733.52	0.039
733.70	0.039
733.88	0.039
734.07	0.039
734.25	0.039
734.43	0.039
734.62	0.038
734.80	0.038
734.98	0.038
735.17	0.038
735.35	0.038
735.53	0.038
735.72	0.038
735.90	0.038
736.08	0.039
736.27	0.038
736.45	0.038
736.63	0.038
736.82	0.038
737.00	0.038
737.18	0.038
737.37	0.037
737.55	0.037
737.73	0.036
737.92	0.036
738.10	0.036
738.28	0.036
738.46	0.036
738.65	0.035
738.83	0.036
739.01	0.036
739.20	0.036
739.38	0.036
739.56	0.036
739.75	0.036
739.93	0.037
740.11	0.037
740.29	0.037
740.48	0.037
740.66	0.037
740.84	0.037
741.03	0.037
741.21	0.038
741.39	0.038
741.57	0.038
741.76	0.038
741.94	0.037
742.12	0.037
742.31	0.037
742.49	0.037
742.67	0.037
742.85	0.037
743.04	0.037
743.22	0.036
743.40	0.036
743.58	0.037
743.77	0.037
743.95	0.037
744.13	0.037
744.31	0.038
744.50	0.038
744.68	0.037
744.86	0.037
745.04	0.038
745.23	0.037
745.41	0.037
745.59	0.037
745.77	0.037
745.96	0.037
746.14	0.036
746.32	0.036
746.50	0.036
746.69	0.036
746.87	0.036
747.05	0.036
747.23	0.035
747.42	0.035
747.60	0.036
747.78	0.036
747.96	0.036
748.14	0.037
748.33	0.037
748.51	0.037
748.69	0.038
748.87	0.038
749.06	0.039
749.24	0.039
749.42	0.039
749.60	0.039
749.78	0.038
749.97	0.038
750.15	0.038
750.33	0.039
750.51	0.039
750.69	0.038
750.88	0.038
751.06	0.037
751.24	0.038
751.42	0.038
751.60	0.037
751.79	0.038
751.97	0.038
752.15	0.038
752.33	0.037
752.51	0.037
752.69	0.037
752.88	0.037
753.06	0.037
753.24	0.037
753.42	0.037
753.60	0.037
753.78	0.036
753.97	0.036
754.15	0.036
754.33	0.037
754.51	0.037
754.69	0.037
754.87	0.037
755.06	0.037
755.24	0.037
755.42	0.037
755.60	0.037
755.78	0.037
755.96	0.037
756.15	0.037
756.33	0.037
756.51	0.037
756.69	0.037
756.87	0.037
757.05	0.037
757.23	0.037
757.42	0.037
757.60	0.037
757.78	0.037
757.96	0.037
758.14	0.037
758.32	0.038
758.50	0.038
758.69	0.039
758.87	0.039
759.05	0.040
759.23	0.040
759.41	0.040
759.59	0.040
759.77	0.041
759.95	0.041
760.13	0.041
760.32	0.041
760.50	0.041
760.68	0.041
760.86	0.041
761.04	0.041
761.22	0.041
761.40	0.041
761.58	0.041
761.76	0.040
761.95	0.040
762.13	0.040
762.31	0.040
762.49	0.039
762.67	0.039
762.85	0.039
763.03	0.038
763.21	0.038
763.39	0.038
763.57	0.038
763.75	0.038
763.94	0.038
764.12	0.037
764.30	0.037
764.48	0.037
764.66	0.037
764.84	0.037
765.02	0.037
765.20	0.037
765.38	0.038
765.56	0.038
765.74	0.038
765.92	0.038
766.10	0.038
766.28	0.038
766.46	0.039
766.65	0.039
766.83	0.039
767.01	0.038
767.19	0.038
767.37	0.038
767.55	0.039
767.73	0.039
767.91	0.038
768.09	0.038
768.27	0.038
768.45	0.038
768.63	0.038
768.81	0.038
768.99	0.038
769.17	0.039
769.35	0.039
769.53	0.039
769.71	0.039
769.89	0.039
770.07	0.040
770.25	0.040
770.43	0.040
770.61	0.040
770.79	0.040
770.97	0.040
771.15	0.040
771.33	0.040
771.51	0.040
771.69	0.040
771.87	0.040
772.05	0.040
772.24	0.040
772.42	0.040
772.60	0.040
772.78	0.040
772.96	0.042
773.14	0.041
773.32	0.041
773.49	0.041
773.67	0.041
773.85	0.041
774.03	0.041
774.21	0.041
774.39	0.040
774.57	0.040
774.75	0.040
774.93	0.039
775.11	0.040
775.29	0.040
775.47	0.039
775.65	0.039
775.83	0.040
776.01	0.039
776.19	0.039
776.37	0.039
776.55	0.039
776.73	0.039
776.91	0.039
777.09	0.039
777.27	0.038
777.45	0.039
777.63	0.039
777.81	0.039
777.99	0.039
778.17	0.039
778.35	0.040
778.53	0.040
778.71	0.040
778.89	0.039
779.07	0.039
779.24	0.039
779.42	0.039
779.60	0.039
779.78	0.039
779.96	0.038
780.14	0.039
780.32	0.038
780.50	0.038
780.68	0.038
780.86	0.039
781.04	0.039
781.22	0.039
781.40	0.039
781.58	0.039
781.75	0.040
781.93	0.041
782.11	0.041
782.29	0.041
782.47	0.041
782.65	0.042
782.83	0.042
783.01	0.042
783.19	0.043
783.37	0.042
783.55	0.042
783.72	0.042
783.90	0.042
784.08	0.042
784.26	0.042
784.44	0.042
784.62	0.041
784.80	0.041
784.98	0.041
785.16	0.041
785.33	0.041
785.51	0.041
785.69	0.041
785.87	0.041
786.05	0.040
786.23	0.040
786.41	0.040
786.59	0.040
786.77	0.040
786.94	0.040
787.12	0.040
787.30	0.040
787.48	0.041
787.66	0.041
787.84	0.041
788.02	0.041
788.19	0.042
788.37	0.042
788.55	0.042
788.73	0.041
788.91	0.042
789.09	0.041
789.27	0.042
789.44	0.041
789.62	0.041
789.80	0.041
789.98	0.041
790.16	0.040
790.34	0.040
790.51	0.041
790.69	0.040
790.87	0.040
791.05	0.040
791.23	0.040
791.41	0.041
791.58	0.041
791.76	0.040
791.94	0.040
792.12	0.041
792.30	0.040
792.48	0.040
792.65	0.041
792.83	0.040
793.01	0.041
793.19	0.040
793.37	0.040
793.54	0.040
793.72	0.041
793.90	0.041
794.08	0.041
794.26	0.041
794.43	0.041
794.61	0.041
794.79	0.042
794.97	0.041
795.15	0.041
795.32	0.041
795.50	0.042
795.68	0.042
795.86	0.041
796.04	0.041
796.21	0.042
796.39	0.042
796.57	0.042
796.75	0.041
796.92	0.042
797.10	0.042
797.28	0.042
797.46	0.042
797.64	0.041
797.81	0.041
797.99	0.041
798.17	0.040
798.35	0.041
798.52	0.041
798.70	0.041
798.88	0.041
799.06	0.041
799.23	0.041
799.41	0.041
799.59	0.041
799.77	0.042
799.94	0.042
800.12	0.042
800.30	0.042
800.48	0.042
800.65	0.042
800.83	0.041
801.01	0.042
801.19	0.042
801.36	0.041
801.54	0.042
801.72	0.041
801.90	0.041
802.07	0.041
802.25	0.042
802.43	0.041
802.60	0.041
802.78	0.042
802.96	0.041
803.14	0.041
803.31	0.040
803.49	0.040
803.67	0.040
803.84	0.040
804.02	0.040
804.20	0.040
804.38	0.040
804.55	0.040
804.73	0.040
804.91	0.040
805.08	0.041
805.26	0.041
805.44	0.041
805.61	0.041
805.79	0.042
805.97	0.041
806.15	0.041
806.32	0.042
806.50	0.041
806.68	0.041
806.85	0.041
807.03	0.041
807.21	0.041
807.38	0.041
807.56	0.041
807.74	0.041
807.91	0.041
808.09	0.041
808.27	0.040
808.44	0.041
808.62	0.041
808.80	0.041
808.97	0.041
809.15	0.041
809.33	0.041
809.50	0.041
809.68	0.042
809.86	0.042
810.03	0.042
810.21	0.042
810.39	0.042
810.56	0.041
810.74	0.041
810.91	0.041
811.09	0.041
811.27	0.041
811.44	0.041
811.62	0.040
811.80	0.040
811.97	0.040
812.15	0.040
812.33	0.040
812.50	0.040
812.68	0.040
812.85	0.040
813.03	0.040
813.21	0.040
813.38	0.040
813.56	0.040
813.74	0.040
813.91	0.040
814.09	0.040
814.26	0.040
814.44	0.040
814.62	0.040
814.79	0.040
814.97	0.040
815.14	0.040
815.32	0.040
815.50	0.040
815.67	0.040
815.85	0.041
816.02	0.041
816.20	0.041
816.38	0.041
816.55	0.041
816.73	0.042
816.90	0.042
817.08	0.042
817.26	0.042
817.43	0.042
817.61	0.042
817.78	0.042
817.96	0.041
818.13	0.041
818.31	0.041
818.49	0.041
818.66	0.041
818.84	0.040
819.01	0.040
819.19	0.040
819.36	0.040
819.54	0.040
819.71	0.040
819.89	0.040
820.07	0.040
820.24	0.040
820.42	0.040
820.59	0.040
820.77	0.040
820.94	0.041
821.12	0.041
821.29	0.041
821.47	0.041
821.64	0.041
821.82	0.042
822.00	0.042
822.17	0.041
822.35	0.041
822.52	0.041
822.70	0.041
822.87	0.041
823.05	0.040
823.22	0.040
823.40	0.039
823.57	0.039
823.75	0.039
823.92	0.038
824.10	0.038
824.27	0.038
824.45	0.039
824.62	0.038
824.80	0.038
824.97	0.038
825.15	0.038
825.32	0.039
825.50	0.038
825.67	0.039
825.85	0.039
826.02	0.040
826.20	0.040
826.37	0.040
826.55	0.041
826.72	0.042
826.90	0.041
827.07	0.041
827.25	0.041
827.42	0.042
827.60	0.041
827.77	0.040
827.95	0.040
828.12	0.041
828.30	0.041
828.47	0.040
828.65	0.039
828.82	0.040
829.00	0.040
829.17	0.041
829.34	0.040
829.52	0.040
829.69	0.041
829.87	0.041
830.04	0.039
830.22	0.040
830.39	0.040
830.57	0.041
830.74	0.040
830.92	0.040
831.09	0.041
831.26	0.041
831.44	0.043
831.61	0.042
831.79	0.042
831.96	0.044
832.14	0.043
832.31	0.042
832.49	0.041
832.66	0.041
832.83	0.042
833.01	0.040
833.18	0.039
833.36	0.037
833.53	0.036
833.70	0.035
833.88	0.034
834.05	0.033
834.23	0.033
834.40	0.033
834.58	0.033
834.75	0.032
834.92	0.034
835.10	0.033
835.27	0.033
835.45	0.034
835.62	0.033
835.79	0.034
835.97	0.034
836.14	0.034
836.32	0.034
836.49	0.033
836.66	0.031
836.84	0.031
837.01	0.031
837.18	0.032
837.36	0.032
837.53	0.033
837.71	0.031
837.88	0.033
838.05	0.032
838.23	0.033
838.40	0.034
838.58	0.035
838.75	0.034
838.92	0.035
839.10	0.033
839.27	0.033
839.44	0.034
839.62	0.034
839.79	0.034
839.96	0.037
840.14	0.036
840.31	0.037
840.48	0.038
840.66	0.040
840.83	0.040
841.01	0.040
841.18	0.040
841.35	0.040
841.53	0.039
841.70	0.040
841.87	0.038
842.05	0.036
842.22	0.035
842.39	0.035
842.57	0.033
842.74	0.033
842.91	0.035
843.09	0.035
843.26	0.037
843.43	0.038
843.60	0.036
843.78	0.037
843.95	0.039
844.12	0.039
844.30	0.040
844.47	0.040
844.64	0.041
844.82	0.038
844.99	0.038
845.16	0.036
845.34	0.037
845.51	0.039
845.68	0.038
845.85	0.038
846.03	0.038
846.20	0.036
846.37	0.040
846.55	0.040
846.72	0.042
846.89	0.042
847.06	0.040
847.24	0.040
847.41	0.040
847.58	0.039
847.76	0.040
847.93	0.039
848.10	0.037
848.27	0.035
848.45	0.036
848.62	0.035
848.79	0.034
848.97	0.035
849.14	0.033
849.31	0.036
849.48	0.036
849.66	0.036
849.83	0.035
850.00	0.036
850.17	0.033
850.35	0.031
850.52	0.029
850.69	0.031
850.86	0.031
851.04	0.032
851.21	0.030
851.38	0.027
851.55	0.025
851.72	0.025
851.90	0.027
852.07	0.029
852.24	0.028
852.41	0.029
852.59	0.030
852.76	0.031
852.93	0.031
853.10	0.032
853.28	0.034
853.45	0.034
853.62	0.034
853.79	0.033
853.96	0.031
854.14	0.034
854.31	0.033
854.48	0.031
854.65	0.030
854.82	0.030
855.00	0.030
855.17	0.031
855.34	0.033
855.51	0.034
855.68	0.034
855.86	0.036
856.03	0.034
856.20	0.032
856.37	0.031
856.54	0.032
856.72	0.033
856.89	0.032
857.06	0.030
857.23	0.031
857.40	0.029
857.57	0.029
857.75	0.030
857.92	0.032
858.09	0.033
858.26	0.033
858.43	0.031
858.60	0.031
858.78	0.032
858.95	0.033
859.12	0.031
859.29	0.029
859.46	0.027
859.63	0.030
859.81	0.031
859.98	0.034
860.15	0.036
860.32	0.040
860.49	0.036
860.66	0.033
860.83	0.033
861.01	0.032
861.18	0.035
861.35	0.038
861.52	0.032
861.69	0.031
861.86	0.029
862.03	0.028
862.21	0.028
862.38	0.033
862.55	0.030
862.72	0.033
862.89	0.037
863.06	0.039
863.23	0.040
863.40	0.040
863.58	0.039
863.75	0.038
863.92	0.036
864.09	0.034
864.26	0.032
864.43	0.033
864.60	0.032
864.77	0.029
864.94	0.031
865.11	0.025
865.29	0.027
865.46	0.028
865.63	0.030
865.80	0.031
865.97	0.032
866.14	0.036
866.31	0.037
866.48	0.036
866.65	0.040
866.82	0.039
866.99	0.044
867.16	0.039
867.34	0.037
867.51	0.040
867.68	0.040
867.85	0.036
868.02	0.031
868.19	0.030
868.36	0.029
868.53	0.024
868.70	0.022
868.87	0.020
869.04	0.027
869.21	0.029
869.38	0.027
869.55	0.024
869.72	0.026
869.89	0.032
870.06	0.030
870.24	0.034
870.41	0.032
870.58	0.026
870.75	0.033
870.92	0.031
871.09	0.029
871.26	0.032
871.43	0.036
871.60	0.039
871.77	0.036
871.94	0.037
872.11	0.030
872.28	0.033
872.45	0.037
872.62	0.032
872.79	0.030
872.96	0.028
873.13	0.019
873.30	0.018
873.47	0.018
873.64	0.020
873.81	0.021
873.98	0.029
874.15	0.030
874.32	0.029
874.49	0.033
874.66	0.034
874.83	0.043
875.00	0.046
875.17	0.042
875.34	0.041
875.51	0.041
875.68	0.043
875.85	0.037
876.02	0.033
876.19	0.037
876.36	0.037
876.53	0.040
876.70	0.039
876.87	0.042
877.04	0.043
877.21	0.044
877.38	0.038
877.55	0.044
877.72	0.050
877.89	0.048
878.06	0.045
878.23	0.042
878.39	0.037
878.56	0.039
878.73	0.038
878.90	0.037
879.07	0.034
879.24	0.035
879.41	0.030
879.58	0.029
879.75	0.028
879.92	0.030
880.09	0.032
880.26	0.035
880.43	0.025
880.60	0.025
880.77	0.035
880.94	0.038
881.11	0.043
881.27	0.041
881.44	0.035
881.61	0.041
881.78	0.041
881.95	0.037
882.12	0.034
882.29	0.037
882.46	0.037
882.63	0.033
882.80	0.031
882.97	0.025
883.14	0.021
883.30	0.024
883.47	0.022
883.64	0.016
883.81	0.022
883.98	0.026
884.15	0.028
884.32	0.027
884.49	0.025
884.66	0.024
884.82	0.030
884.99	0.032
885.16	0.034
885.33	0.031
885.50	0.030
885.67	0.030
885.84	0.032
886.01	0.029
886.17	0.028
886.34	0.035
886.51	0.038
886.68	0.034
886.85	0.030
887.02	0.035
887.19	0.031
887.36	0.030
887.52	0.028
887.69	0.028
887.86	0.033
888.03	0.032
888.20	0.031
888.37	0.023
888.54	0.022
888.70	0.019
888.87	0.007
889.04	0.018
889.21	0.019
889.38	0.023
889.55	0.018
889.71	-0.031
889.88	0.065
890.05	-0.056
890.22	0.108
890.39	-0.004
>>>>>End Processed Spectral Data<<<<<
