SpectraSuite Data File
++++++++++++++++++++++++++++++++++++
Date: Mon Jun 15 09:28:35 PDT 2015
User: introlabs
Dark Spectrum Present: Yes
Reference Spectrum Present: Yes
Number of Sampled Component Spectra: 1
Spectrometers: USB4H08886
Integration Time (usec): 44366 (USB4H08886)
Spectra Averaged: 20 (USB4H08886)
Boxcar Smoothing: 5 (USB4H08886)
Correct for Electrical Dark: Yes (USB4H08886)
Strobe/Lamp Enabled: No (USB4H08886)
Correct for Detector Non-linearity: Yes (USB4H08886)
Correct for Stray Light: Yes (USB4H08886)
Number of Pixels in Processed Spectrum: 3648
>>>>>Begin Processed Spectral Data<<<<<
178.14	0.019
178.36	0.019
178.57	0.019
178.79	0.801
179.01	-0.998
179.22	-0.052
179.44	-0.379
179.65	-0.000
179.87	-0.000
180.08	1.252
180.30	0.611
180.52	0.950
180.73	-0.000
180.95	0.292
181.16	0.232
181.38	0.181
181.59	0.190
181.81	0.175
182.03	0.168
182.24	0.174
182.46	0.165
182.67	0.151
182.89	0.145
183.10	0.138
183.32	0.136
183.54	0.123
183.75	0.122
183.97	0.118
184.18	0.110
184.40	0.108
184.61	0.108
184.83	0.103
185.04	0.101
185.26	0.099
185.48	0.096
185.69	0.111
185.91	0.114
186.12	0.122
186.34	0.117
186.55	0.118
186.77	0.118
186.98	0.114
187.20	0.112
187.42	0.124
187.63	0.127
187.85	0.137
188.06	0.126
188.28	0.130
188.49	0.124
188.71	0.126
188.92	0.134
189.14	0.130
189.36	0.137
189.57	0.132
189.79	0.125
190.00	0.123
190.22	0.118
190.43	0.122
190.65	0.120
190.86	0.128
191.08	0.122
191.29	0.116
191.51	0.114
191.72	0.107
191.94	0.114
192.16	0.119
192.37	0.122
192.59	0.119
192.80	0.116
193.02	0.119
193.23	0.124
193.45	0.116
193.66	0.112
193.88	0.108
194.09	0.110
194.31	0.104
194.52	0.095
194.74	0.091
194.95	0.097
195.17	0.095
195.38	0.086
195.60	0.072
195.81	0.092
196.03	0.099
196.25	0.123
196.46	0.121
196.68	0.131
196.89	0.134
197.11	0.133
197.32	0.117
197.54	0.118
197.75	0.129
197.97	0.131
198.18	0.121
198.40	0.128
198.61	0.110
198.83	0.103
199.04	0.103
199.26	0.110
199.47	0.105
199.69	0.117
199.90	0.135
200.12	0.131
200.33	0.141
200.55	0.142
200.76	0.126
200.98	0.118
201.19	0.115
201.41	0.109
201.62	0.108
201.84	0.118
202.05	0.123
202.27	0.108
202.48	0.108
202.70	0.097
202.91	0.091
203.13	0.088
203.34	0.096
203.56	0.099
203.77	0.103
203.99	0.096
204.20	0.098
204.42	0.087
204.63	0.086
204.85	0.078
205.06	0.079
205.28	0.087
205.49	0.092
205.71	0.104
205.92	0.112
206.14	0.113
206.35	0.124
206.56	0.124
206.78	0.122
206.99	0.126
207.21	0.139
207.42	0.137
207.64	0.133
207.85	0.132
208.07	0.124
208.28	0.122
208.50	0.121
208.71	0.124
208.93	0.118
209.14	0.122
209.36	0.117
209.57	0.117
209.79	0.129
210.00	0.132
210.22	0.134
210.43	0.138
210.64	0.141
210.86	0.139
211.07	0.126
211.29	0.122
211.50	0.119
211.72	0.121
211.93	0.118
212.15	0.117
212.36	0.113
212.58	0.114
212.79	0.109
213.01	0.099
213.22	0.097
213.43	0.102
213.65	0.114
213.86	0.114
214.08	0.119
214.29	0.115
214.51	0.106
214.72	0.106
214.94	0.106
215.15	0.110
215.36	0.116
215.58	0.121
215.79	0.115
216.01	0.108
216.22	0.114
216.44	0.110
216.65	0.113
216.87	0.116
217.08	0.118
217.29	0.121
217.51	0.121
217.72	0.119
217.94	0.114
218.15	0.121
218.37	0.122
218.58	0.117
218.80	0.119
219.01	0.114
219.22	0.114
219.44	0.110
219.65	0.108
219.87	0.107
220.08	0.103
220.30	0.101
220.51	0.103
220.72	0.105
220.94	0.104
221.15	0.103
221.37	0.104
221.58	0.104
221.79	0.111
222.01	0.104
222.22	0.100
222.44	0.104
222.65	0.107
222.87	0.104
223.08	0.103
223.29	0.103
223.51	0.101
223.72	0.100
223.94	0.096
224.15	0.090
224.36	0.099
224.58	0.095
224.79	0.099
225.01	0.099
225.22	0.100
225.44	0.100
225.65	0.101
225.86	0.101
226.08	0.107
226.29	0.108
226.51	0.113
226.72	0.111
226.93	0.116
227.15	0.107
227.36	0.102
227.58	0.102
227.79	0.100
228.00	0.101
228.22	0.098
228.43	0.096
228.65	0.094
228.86	0.092
229.07	0.090
229.29	0.089
229.50	0.092
229.72	0.096
229.93	0.094
230.14	0.096
230.36	0.094
230.57	0.097
230.78	0.094
231.00	0.093
231.21	0.090
231.43	0.092
231.64	0.092
231.85	0.093
232.07	0.092
232.28	0.092
232.50	0.089
232.71	0.090
232.92	0.090
233.14	0.092
233.35	0.096
233.56	0.100
233.78	0.097
233.99	0.094
234.21	0.093
234.42	0.094
234.63	0.096
234.85	0.095
235.06	0.096
235.27	0.096
235.49	0.097
235.70	0.097
235.91	0.095
236.13	0.098
236.34	0.100
236.56	0.101
236.77	0.101
236.98	0.101
237.20	0.104
237.41	0.106
237.62	0.107
237.84	0.109
238.05	0.109
238.26	0.109
238.48	0.109
238.69	0.110
238.91	0.111
239.12	0.113
239.33	0.113
239.55	0.114
239.76	0.114
239.97	0.115
240.19	0.115
240.40	0.116
240.61	0.118
240.83	0.119
241.04	0.120
241.25	0.121
241.47	0.122
241.68	0.124
241.89	0.125
242.11	0.126
242.32	0.127
242.53	0.128
242.75	0.130
242.96	0.131
243.17	0.132
243.39	0.133
243.60	0.133
243.81	0.134
244.03	0.133
244.24	0.133
244.45	0.135
244.67	0.136
244.88	0.137
245.09	0.137
245.31	0.138
245.52	0.138
245.73	0.138
245.95	0.139
246.16	0.139
246.37	0.140
246.59	0.141
246.80	0.141
247.01	0.141
247.23	0.141
247.44	0.142
247.65	0.142
247.87	0.143
248.08	0.144
248.29	0.144
248.51	0.145
248.72	0.145
248.93	0.145
249.15	0.146
249.36	0.146
249.57	0.146
249.78	0.146
250.00	0.146
250.21	0.146
250.42	0.147
250.64	0.146
250.85	0.147
251.06	0.147
251.28	0.147
251.49	0.147
251.70	0.147
251.92	0.148
252.13	0.149
252.34	0.149
252.55	0.149
252.77	0.149
252.98	0.149
253.19	0.149
253.41	0.149
253.62	0.150
253.83	0.151
254.05	0.151
254.26	0.151
254.47	0.151
254.68	0.151
254.90	0.151
255.11	0.152
255.32	0.153
255.54	0.153
255.75	0.153
255.96	0.153
256.17	0.152
256.39	0.152
256.60	0.153
256.81	0.153
257.03	0.153
257.24	0.153
257.45	0.152
257.66	0.152
257.88	0.152
258.09	0.151
258.30	0.152
258.51	0.151
258.73	0.151
258.94	0.151
259.15	0.151
259.37	0.150
259.58	0.150
259.79	0.150
260.00	0.150
260.22	0.150
260.43	0.151
260.64	0.150
260.85	0.150
261.07	0.150
261.28	0.150
261.49	0.150
261.71	0.150
261.92	0.150
262.13	0.149
262.34	0.149
262.56	0.149
262.77	0.149
262.98	0.148
263.19	0.148
263.41	0.148
263.62	0.148
263.83	0.147
264.04	0.147
264.26	0.147
264.47	0.147
264.68	0.147
264.89	0.147
265.11	0.146
265.32	0.147
265.53	0.146
265.74	0.146
265.96	0.146
266.17	0.146
266.38	0.146
266.59	0.146
266.81	0.146
267.02	0.145
267.23	0.145
267.44	0.144
267.65	0.144
267.87	0.144
268.08	0.143
268.29	0.143
268.50	0.143
268.72	0.143
268.93	0.143
269.14	0.143
269.35	0.143
269.57	0.142
269.78	0.142
269.99	0.142
270.20	0.142
270.41	0.142
270.63	0.142
270.84	0.141
271.05	0.140
271.26	0.140
271.48	0.140
271.69	0.140
271.90	0.140
272.11	0.139
272.32	0.139
272.54	0.138
272.75	0.138
272.96	0.138
273.17	0.138
273.39	0.138
273.60	0.137
273.81	0.137
274.02	0.137
274.23	0.137
274.45	0.137
274.66	0.137
274.87	0.136
275.08	0.136
275.29	0.136
275.51	0.136
275.72	0.136
275.93	0.136
276.14	0.136
276.35	0.136
276.57	0.135
276.78	0.135
276.99	0.135
277.20	0.135
277.41	0.135
277.63	0.135
277.84	0.135
278.05	0.135
278.26	0.136
278.47	0.135
278.69	0.136
278.90	0.136
279.11	0.137
279.32	0.137
279.53	0.138
279.74	0.138
279.96	0.138
280.17	0.138
280.38	0.138
280.59	0.138
280.80	0.138
281.02	0.138
281.23	0.138
281.44	0.138
281.65	0.138
281.86	0.138
282.07	0.138
282.29	0.138
282.50	0.138
282.71	0.139
282.92	0.139
283.13	0.139
283.35	0.139
283.56	0.139
283.77	0.140
283.98	0.140
284.19	0.140
284.40	0.141
284.62	0.141
284.83	0.141
285.04	0.141
285.25	0.142
285.46	0.142
285.67	0.143
285.88	0.143
286.10	0.143
286.31	0.144
286.52	0.145
286.73	0.145
286.94	0.146
287.15	0.146
287.37	0.147
287.58	0.147
287.79	0.148
288.00	0.149
288.21	0.149
288.42	0.149
288.63	0.150
288.85	0.150
289.06	0.151
289.27	0.151
289.48	0.152
289.69	0.152
289.90	0.152
290.11	0.153
290.33	0.153
290.54	0.153
290.75	0.153
290.96	0.154
291.17	0.154
291.38	0.154
291.59	0.155
291.81	0.155
292.02	0.155
292.23	0.155
292.44	0.155
292.65	0.155
292.86	0.156
293.07	0.156
293.28	0.156
293.50	0.156
293.71	0.156
293.92	0.156
294.13	0.157
294.34	0.157
294.55	0.157
294.76	0.157
294.97	0.157
295.19	0.157
295.40	0.157
295.61	0.157
295.82	0.156
296.03	0.156
296.24	0.156
296.45	0.156
296.66	0.156
296.87	0.156
297.09	0.156
297.30	0.156
297.51	0.156
297.72	0.156
297.93	0.156
298.14	0.156
298.35	0.156
298.56	0.156
298.77	0.156
298.99	0.156
299.20	0.156
299.41	0.156
299.62	0.156
299.83	0.156
300.04	0.156
300.25	0.156
300.46	0.156
300.67	0.156
300.88	0.156
301.10	0.156
301.31	0.156
301.52	0.156
301.73	0.155
301.94	0.155
302.15	0.155
302.36	0.155
302.57	0.155
302.78	0.155
302.99	0.155
303.20	0.154
303.41	0.155
303.63	0.155
303.84	0.155
304.05	0.155
304.26	0.155
304.47	0.155
304.68	0.154
304.89	0.155
305.10	0.155
305.31	0.155
305.52	0.155
305.73	0.154
305.94	0.154
306.15	0.154
306.37	0.154
306.58	0.154
306.79	0.154
307.00	0.154
307.21	0.154
307.42	0.154
307.63	0.154
307.84	0.154
308.05	0.154
308.26	0.154
308.47	0.154
308.68	0.154
308.89	0.153
309.10	0.153
309.31	0.153
309.52	0.153
309.73	0.153
309.95	0.153
310.16	0.153
310.37	0.153
310.58	0.153
310.79	0.153
311.00	0.153
311.21	0.153
311.42	0.153
311.63	0.153
311.84	0.153
312.05	0.153
312.26	0.153
312.47	0.153
312.68	0.153
312.89	0.153
313.10	0.153
313.31	0.152
313.52	0.152
313.73	0.152
313.94	0.152
314.15	0.152
314.36	0.152
314.57	0.152
314.78	0.152
314.99	0.152
315.21	0.152
315.42	0.152
315.63	0.152
315.84	0.152
316.05	0.152
316.26	0.152
316.47	0.152
316.68	0.152
316.89	0.152
317.10	0.152
317.31	0.152
317.52	0.152
317.73	0.152
317.94	0.152
318.15	0.152
318.36	0.152
318.57	0.152
318.78	0.151
318.99	0.151
319.20	0.152
319.41	0.151
319.62	0.151
319.83	0.151
320.04	0.151
320.25	0.151
320.46	0.151
320.67	0.151
320.88	0.151
321.09	0.151
321.30	0.150
321.51	0.150
321.72	0.150
321.93	0.150
322.14	0.150
322.35	0.150
322.56	0.150
322.77	0.150
322.98	0.150
323.19	0.150
323.40	0.150
323.61	0.150
323.82	0.150
324.03	0.150
324.24	0.150
324.45	0.150
324.66	0.150
324.87	0.150
325.08	0.150
325.29	0.150
325.50	0.150
325.71	0.149
325.92	0.150
326.13	0.149
326.34	0.149
326.55	0.149
326.76	0.149
326.97	0.149
327.18	0.149
327.39	0.149
327.60	0.149
327.80	0.149
328.01	0.149
328.22	0.149
328.43	0.149
328.64	0.149
328.85	0.149
329.06	0.149
329.27	0.148
329.48	0.148
329.69	0.148
329.90	0.148
330.11	0.148
330.32	0.148
330.53	0.148
330.74	0.148
330.95	0.148
331.16	0.147
331.37	0.148
331.58	0.147
331.79	0.147
332.00	0.147
332.21	0.147
332.42	0.147
332.63	0.147
332.83	0.147
333.04	0.147
333.25	0.147
333.46	0.146
333.67	0.146
333.88	0.146
334.09	0.146
334.30	0.146
334.51	0.146
334.72	0.146
334.93	0.146
335.14	0.145
335.35	0.145
335.56	0.145
335.77	0.145
335.98	0.145
336.18	0.145
336.39	0.145
336.60	0.145
336.81	0.145
337.02	0.145
337.23	0.145
337.44	0.145
337.65	0.145
337.86	0.145
338.07	0.145
338.28	0.144
338.49	0.144
338.70	0.144
338.91	0.144
339.11	0.144
339.32	0.144
339.53	0.144
339.74	0.143
339.95	0.143
340.16	0.143
340.37	0.143
340.58	0.143
340.79	0.142
341.00	0.142
341.21	0.142
341.41	0.142
341.62	0.142
341.83	0.142
342.04	0.142
342.25	0.142
342.46	0.142
342.67	0.142
342.88	0.142
343.09	0.142
343.30	0.142
343.50	0.141
343.71	0.141
343.92	0.141
344.13	0.141
344.34	0.141
344.55	0.141
344.76	0.141
344.97	0.141
345.18	0.141
345.38	0.140
345.59	0.140
345.80	0.140
346.01	0.140
346.22	0.140
346.43	0.140
346.64	0.140
346.85	0.140
347.06	0.140
347.26	0.140
347.47	0.139
347.68	0.139
347.89	0.139
348.10	0.139
348.31	0.139
348.52	0.139
348.73	0.139
348.93	0.139
349.14	0.138
349.35	0.138
349.56	0.138
349.77	0.138
349.98	0.138
350.19	0.138
350.39	0.138
350.60	0.138
350.81	0.138
351.02	0.138
351.23	0.137
351.44	0.137
351.65	0.137
351.86	0.137
352.06	0.137
352.27	0.137
352.48	0.137
352.69	0.137
352.90	0.137
353.11	0.137
353.31	0.137
353.52	0.137
353.73	0.137
353.94	0.137
354.15	0.137
354.36	0.137
354.57	0.136
354.77	0.136
354.98	0.136
355.19	0.136
355.40	0.136
355.61	0.136
355.82	0.136
356.02	0.136
356.23	0.136
356.44	0.136
356.65	0.136
356.86	0.136
357.07	0.136
357.27	0.136
357.48	0.136
357.69	0.136
357.90	0.136
358.11	0.136
358.32	0.136
358.52	0.135
358.73	0.135
358.94	0.135
359.15	0.135
359.36	0.135
359.56	0.135
359.77	0.135
359.98	0.135
360.19	0.134
360.40	0.134
360.61	0.134
360.81	0.134
361.02	0.134
361.23	0.134
361.44	0.134
361.65	0.134
361.85	0.134
362.06	0.134
362.27	0.134
362.48	0.134
362.69	0.134
362.89	0.134
363.10	0.134
363.31	0.133
363.52	0.133
363.73	0.133
363.93	0.133
364.14	0.133
364.35	0.133
364.56	0.133
364.77	0.133
364.97	0.133
365.18	0.133
365.39	0.133
365.60	0.133
365.81	0.133
366.01	0.133
366.22	0.133
366.43	0.133
366.64	0.133
366.84	0.132
367.05	0.132
367.26	0.132
367.47	0.132
367.68	0.132
367.88	0.132
368.09	0.132
368.30	0.132
368.51	0.132
368.71	0.132
368.92	0.132
369.13	0.132
369.34	0.132
369.55	0.132
369.75	0.132
369.96	0.132
370.17	0.132
370.38	0.132
370.58	0.132
370.79	0.132
371.00	0.132
371.21	0.132
371.41	0.132
371.62	0.131
371.83	0.131
372.04	0.131
372.24	0.131
372.45	0.131
372.66	0.131
372.87	0.131
373.07	0.131
373.28	0.131
373.49	0.131
373.70	0.131
373.90	0.131
374.11	0.131
374.32	0.130
374.53	0.130
374.73	0.130
374.94	0.130
375.15	0.130
375.36	0.130
375.56	0.131
375.77	0.130
375.98	0.130
376.19	0.130
376.39	0.130
376.60	0.130
376.81	0.130
377.02	0.130
377.22	0.130
377.43	0.130
377.64	0.130
377.84	0.130
378.05	0.130
378.26	0.129
378.47	0.129
378.67	0.129
378.88	0.129
379.09	0.130
379.30	0.129
379.50	0.129
379.71	0.129
379.92	0.129
380.12	0.129
380.33	0.129
380.54	0.129
380.75	0.129
380.95	0.129
381.16	0.128
381.37	0.128
381.57	0.128
381.78	0.128
381.99	0.128
382.20	0.128
382.40	0.128
382.61	0.128
382.82	0.128
383.02	0.128
383.23	0.128
383.44	0.128
383.64	0.128
383.85	0.128
384.06	0.128
384.27	0.128
384.47	0.128
384.68	0.128
384.89	0.128
385.09	0.128
385.30	0.127
385.51	0.127
385.71	0.127
385.92	0.127
386.13	0.127
386.33	0.127
386.54	0.127
386.75	0.127
386.95	0.127
387.16	0.127
387.37	0.127
387.58	0.127
387.78	0.127
387.99	0.127
388.20	0.127
388.40	0.127
388.61	0.127
388.82	0.127
389.02	0.127
389.23	0.126
389.44	0.126
389.64	0.126
389.85	0.126
390.06	0.126
390.26	0.126
390.47	0.126
390.68	0.126
390.88	0.126
391.09	0.126
391.30	0.126
391.50	0.126
391.71	0.126
391.92	0.126
392.12	0.126
392.33	0.126
392.53	0.126
392.74	0.126
392.95	0.126
393.15	0.126
393.36	0.125
393.57	0.125
393.77	0.125
393.98	0.125
394.19	0.125
394.39	0.125
394.60	0.125
394.81	0.125
395.01	0.125
395.22	0.125
395.43	0.125
395.63	0.125
395.84	0.125
396.04	0.124
396.25	0.124
396.46	0.124
396.66	0.124
396.87	0.124
397.08	0.124
397.28	0.124
397.49	0.124
397.69	0.124
397.90	0.124
398.11	0.124
398.31	0.124
398.52	0.124
398.73	0.124
398.93	0.124
399.14	0.124
399.34	0.124
399.55	0.124
399.76	0.124
399.96	0.124
400.17	0.124
400.37	0.124
400.58	0.124
400.79	0.124
400.99	0.123
401.20	0.123
401.41	0.123
401.61	0.123
401.82	0.123
402.02	0.123
402.23	0.123
402.44	0.123
402.64	0.123
402.85	0.123
403.05	0.123
403.26	0.123
403.47	0.123
403.67	0.122
403.88	0.122
404.08	0.123
404.29	0.122
404.50	0.122
404.70	0.122
404.91	0.122
405.11	0.122
405.32	0.122
405.52	0.122
405.73	0.122
405.94	0.122
406.14	0.122
406.35	0.121
406.55	0.121
406.76	0.121
406.97	0.121
407.17	0.121
407.38	0.121
407.58	0.121
407.79	0.121
407.99	0.122
408.20	0.121
408.41	0.122
408.61	0.121
408.82	0.121
409.02	0.121
409.23	0.121
409.43	0.121
409.64	0.121
409.84	0.121
410.05	0.121
410.26	0.121
410.46	0.121
410.67	0.121
410.87	0.121
411.08	0.121
411.28	0.121
411.49	0.121
411.69	0.120
411.90	0.120
412.11	0.120
412.31	0.120
412.52	0.120
412.72	0.120
412.93	0.120
413.13	0.120
413.34	0.120
413.54	0.120
413.75	0.120
413.95	0.120
414.16	0.120
414.37	0.120
414.57	0.120
414.78	0.120
414.98	0.120
415.19	0.120
415.39	0.120
415.60	0.120
415.80	0.120
416.01	0.119
416.21	0.119
416.42	0.119
416.62	0.119
416.83	0.119
417.03	0.119
417.24	0.119
417.44	0.119
417.65	0.118
417.86	0.119
418.06	0.118
418.27	0.118
418.47	0.118
418.68	0.118
418.88	0.118
419.09	0.118
419.29	0.118
419.50	0.118
419.70	0.118
419.91	0.118
420.11	0.118
420.32	0.118
420.52	0.118
420.73	0.118
420.93	0.118
421.14	0.118
421.34	0.118
421.55	0.117
421.75	0.118
421.96	0.118
422.16	0.118
422.37	0.117
422.57	0.118
422.78	0.118
422.98	0.118
423.19	0.118
423.39	0.118
423.60	0.118
423.80	0.118
424.01	0.118
424.21	0.118
424.42	0.118
424.62	0.118
424.83	0.118
425.03	0.118
425.23	0.117
425.44	0.117
425.64	0.117
425.85	0.117
426.05	0.117
426.26	0.117
426.46	0.117
426.67	0.117
426.87	0.116
427.08	0.116
427.28	0.116
427.49	0.116
427.69	0.116
427.90	0.116
428.10	0.116
428.31	0.116
428.51	0.116
428.71	0.116
428.92	0.116
429.12	0.116
429.33	0.116
429.53	0.116
429.74	0.116
429.94	0.116
430.15	0.116
430.35	0.116
430.56	0.116
430.76	0.116
430.96	0.116
431.17	0.116
431.37	0.116
431.58	0.117
431.78	0.116
431.99	0.116
432.19	0.116
432.40	0.116
432.60	0.116
432.80	0.116
433.01	0.116
433.21	0.116
433.42	0.116
433.62	0.116
433.83	0.115
434.03	0.115
434.23	0.115
434.44	0.115
434.64	0.115
434.85	0.115
435.05	0.115
435.26	0.115
435.46	0.115
435.66	0.115
435.87	0.115
436.07	0.115
436.28	0.115
436.48	0.114
436.69	0.114
436.89	0.114
437.09	0.114
437.30	0.114
437.50	0.114
437.71	0.114
437.91	0.114
438.11	0.114
438.32	0.114
438.52	0.114
438.73	0.114
438.93	0.114
439.13	0.114
439.34	0.114
439.54	0.114
439.75	0.114
439.95	0.114
440.15	0.114
440.36	0.114
440.56	0.114
440.77	0.114
440.97	0.114
441.17	0.114
441.38	0.114
441.58	0.113
441.79	0.114
441.99	0.114
442.19	0.113
442.40	0.113
442.60	0.113
442.81	0.113
443.01	0.113
443.21	0.113
443.42	0.113
443.62	0.113
443.82	0.113
444.03	0.113
444.23	0.113
444.44	0.113
444.64	0.113
444.84	0.113
445.05	0.113
445.25	0.113
445.45	0.113
445.66	0.113
445.86	0.113
446.06	0.113
446.27	0.113
446.47	0.113
446.68	0.113
446.88	0.113
447.08	0.113
447.29	0.113
447.49	0.113
447.69	0.113
447.90	0.113
448.10	0.113
448.30	0.113
448.51	0.112
448.71	0.112
448.91	0.112
449.12	0.112
449.32	0.112
449.52	0.112
449.73	0.112
449.93	0.112
450.14	0.112
450.34	0.112
450.54	0.112
450.75	0.112
450.95	0.112
451.15	0.112
451.36	0.112
451.56	0.112
451.76	0.112
451.97	0.112
452.17	0.112
452.37	0.112
452.58	0.112
452.78	0.112
452.98	0.112
453.19	0.111
453.39	0.111
453.59	0.111
453.79	0.111
454.00	0.111
454.20	0.111
454.40	0.111
454.61	0.111
454.81	0.111
455.01	0.111
455.22	0.111
455.42	0.111
455.62	0.111
455.83	0.111
456.03	0.111
456.23	0.111
456.44	0.111
456.64	0.111
456.84	0.111
457.04	0.111
457.25	0.111
457.45	0.111
457.65	0.111
457.86	0.111
458.06	0.110
458.26	0.110
458.47	0.110
458.67	0.110
458.87	0.110
459.07	0.110
459.28	0.110
459.48	0.110
459.68	0.110
459.89	0.110
460.09	0.110
460.29	0.110
460.49	0.110
460.70	0.110
460.90	0.110
461.10	0.110
461.31	0.110
461.51	0.110
461.71	0.110
461.91	0.110
462.12	0.110
462.32	0.110
462.52	0.110
462.72	0.109
462.93	0.109
463.13	0.109
463.33	0.109
463.53	0.109
463.74	0.109
463.94	0.109
464.14	0.109
464.35	0.109
464.55	0.109
464.75	0.109
464.95	0.109
465.16	0.109
465.36	0.109
465.56	0.109
465.76	0.109
465.97	0.109
466.17	0.109
466.37	0.109
466.57	0.109
466.78	0.109
466.98	0.109
467.18	0.109
467.38	0.109
467.59	0.109
467.79	0.109
467.99	0.109
468.19	0.109
468.39	0.109
468.60	0.109
468.80	0.109
469.00	0.109
469.20	0.109
469.41	0.109
469.61	0.108
469.81	0.108
470.01	0.108
470.22	0.108
470.42	0.108
470.62	0.108
470.82	0.108
471.02	0.108
471.23	0.108
471.43	0.108
471.63	0.108
471.83	0.108
472.04	0.108
472.24	0.108
472.44	0.108
472.64	0.108
472.84	0.107
473.05	0.107
473.25	0.107
473.45	0.107
473.65	0.107
473.85	0.107
474.06	0.107
474.26	0.107
474.46	0.107
474.66	0.107
474.86	0.107
475.07	0.107
475.27	0.107
475.47	0.107
475.67	0.108
475.87	0.108
476.08	0.108
476.28	0.108
476.48	0.108
476.68	0.108
476.88	0.108
477.09	0.108
477.29	0.108
477.49	0.108
477.69	0.108
477.89	0.107
478.09	0.107
478.30	0.107
478.50	0.107
478.70	0.107
478.90	0.107
479.10	0.106
479.31	0.106
479.51	0.106
479.71	0.106
479.91	0.106
480.11	0.106
480.31	0.106
480.52	0.106
480.72	0.107
480.92	0.106
481.12	0.106
481.32	0.106
481.52	0.106
481.72	0.106
481.93	0.106
482.13	0.106
482.33	0.106
482.53	0.105
482.73	0.105
482.93	0.105
483.14	0.105
483.34	0.105
483.54	0.105
483.74	0.105
483.94	0.105
484.14	0.105
484.34	0.105
484.55	0.105
484.75	0.105
484.95	0.105
485.15	0.105
485.35	0.105
485.55	0.105
485.75	0.105
485.96	0.105
486.16	0.105
486.36	0.105
486.56	0.105
486.76	0.105
486.96	0.105
487.16	0.106
487.36	0.106
487.57	0.106
487.77	0.106
487.97	0.106
488.17	0.105
488.37	0.106
488.57	0.106
488.77	0.106
488.97	0.106
489.18	0.106
489.38	0.106
489.58	0.106
489.78	0.106
489.98	0.106
490.18	0.106
490.38	0.106
490.58	0.106
490.78	0.105
490.98	0.105
491.19	0.105
491.39	0.105
491.59	0.105
491.79	0.105
491.99	0.105
492.19	0.105
492.39	0.105
492.59	0.105
492.79	0.105
492.99	0.105
493.20	0.105
493.40	0.104
493.60	0.104
493.80	0.104
494.00	0.104
494.20	0.104
494.40	0.104
494.60	0.104
494.80	0.104
495.00	0.104
495.20	0.104
495.40	0.104
495.61	0.104
495.81	0.104
496.01	0.104
496.21	0.104
496.41	0.105
496.61	0.105
496.81	0.105
497.01	0.105
497.21	0.105
497.41	0.105
497.61	0.105
497.81	0.105
498.01	0.105
498.21	0.105
498.41	0.105
498.61	0.105
498.82	0.105
499.02	0.105
499.22	0.104
499.42	0.104
499.62	0.104
499.82	0.104
500.02	0.104
500.22	0.104
500.42	0.104
500.62	0.104
500.82	0.104
501.02	0.104
501.22	0.104
501.42	0.104
501.62	0.104
501.82	0.104
502.02	0.104
502.22	0.104
502.42	0.104
502.62	0.104
502.82	0.104
503.02	0.104
503.22	0.104
503.42	0.104
503.63	0.104
503.83	0.104
504.03	0.104
504.23	0.104
504.43	0.104
504.63	0.104
504.83	0.104
505.03	0.104
505.23	0.104
505.43	0.104
505.63	0.104
505.83	0.104
506.03	0.104
506.23	0.104
506.43	0.104
506.63	0.104
506.83	0.104
507.03	0.104
507.23	0.104
507.43	0.104
507.63	0.104
507.83	0.104
508.03	0.104
508.23	0.103
508.43	0.103
508.63	0.103
508.83	0.104
509.03	0.104
509.23	0.104
509.43	0.104
509.63	0.103
509.83	0.104
510.03	0.104
510.23	0.103
510.43	0.103
510.63	0.103
510.83	0.103
511.03	0.103
511.23	0.103
511.43	0.103
511.63	0.103
511.83	0.103
512.03	0.103
512.22	0.103
512.42	0.103
512.62	0.103
512.82	0.103
513.02	0.103
513.22	0.103
513.42	0.103
513.62	0.103
513.82	0.103
514.02	0.103
514.22	0.103
514.42	0.103
514.62	0.103
514.82	0.103
515.02	0.103
515.22	0.103
515.42	0.103
515.62	0.103
515.82	0.103
516.02	0.103
516.22	0.103
516.42	0.103
516.62	0.103
516.82	0.103
517.01	0.103
517.21	0.103
517.41	0.103
517.61	0.103
517.81	0.103
518.01	0.103
518.21	0.103
518.41	0.103
518.61	0.103
518.81	0.102
519.01	0.103
519.21	0.103
519.41	0.103
519.61	0.103
519.81	0.102
520.00	0.102
520.20	0.102
520.40	0.102
520.60	0.102
520.80	0.102
521.00	0.102
521.20	0.102
521.40	0.102
521.60	0.102
521.80	0.102
522.00	0.102
522.20	0.102
522.39	0.102
522.59	0.102
522.79	0.102
522.99	0.102
523.19	0.102
523.39	0.102
523.59	0.102
523.79	0.102
523.99	0.102
524.19	0.102
524.38	0.102
524.58	0.102
524.78	0.102
524.98	0.102
525.18	0.102
525.38	0.102
525.58	0.102
525.78	0.102
525.98	0.102
526.18	0.102
526.37	0.101
526.57	0.101
526.77	0.101
526.97	0.101
527.17	0.101
527.37	0.101
527.57	0.101
527.77	0.101
527.96	0.101
528.16	0.101
528.36	0.101
528.56	0.101
528.76	0.101
528.96	0.101
529.16	0.101
529.36	0.101
529.55	0.101
529.75	0.102
529.95	0.101
530.15	0.102
530.35	0.102
530.55	0.102
530.75	0.101
530.94	0.101
531.14	0.101
531.34	0.101
531.54	0.101
531.74	0.101
531.94	0.101
532.13	0.101
532.33	0.101
532.53	0.101
532.73	0.101
532.93	0.101
533.13	0.101
533.33	0.101
533.52	0.101
533.72	0.101
533.92	0.101
534.12	0.101
534.32	0.101
534.52	0.101
534.71	0.101
534.91	0.101
535.11	0.101
535.31	0.101
535.51	0.101
535.71	0.101
535.90	0.100
536.10	0.100
536.30	0.101
536.50	0.100
536.70	0.100
536.89	0.100
537.09	0.100
537.29	0.100
537.49	0.100
537.69	0.100
537.89	0.100
538.08	0.100
538.28	0.100
538.48	0.100
538.68	0.100
538.88	0.100
539.07	0.100
539.27	0.100
539.47	0.100
539.67	0.100
539.87	0.100
540.06	0.100
540.26	0.100
540.46	0.100
540.66	0.100
540.86	0.100
541.05	0.100
541.25	0.100
541.45	0.100
541.65	0.100
541.84	0.100
542.04	0.100
542.24	0.100
542.44	0.100
542.64	0.099
542.83	0.099
543.03	0.099
543.23	0.099
543.43	0.099
543.62	0.099
543.82	0.099
544.02	0.099
544.22	0.099
544.42	0.099
544.61	0.099
544.81	0.099
545.01	0.099
545.21	0.099
545.40	0.099
545.60	0.099
545.80	0.099
546.00	0.100
546.19	0.100
546.39	0.100
546.59	0.100
546.79	0.100
546.98	0.100
547.18	0.100
547.38	0.100
547.58	0.100
547.77	0.100
547.97	0.099
548.17	0.099
548.37	0.099
548.56	0.099
548.76	0.099
548.96	0.099
549.16	0.099
549.35	0.099
549.55	0.099
549.75	0.099
549.95	0.099
550.14	0.099
550.34	0.099
550.54	0.099
550.73	0.099
550.93	0.099
551.13	0.098
551.33	0.098
551.52	0.098
551.72	0.099
551.92	0.099
552.12	0.098
552.31	0.098
552.51	0.098
552.71	0.098
552.90	0.098
553.10	0.099
553.30	0.099
553.50	0.099
553.69	0.099
553.89	0.099
554.09	0.099
554.28	0.099
554.48	0.099
554.68	0.099
554.87	0.099
555.07	0.099
555.27	0.099
555.47	0.099
555.66	0.099
555.86	0.099
556.06	0.099
556.25	0.099
556.45	0.099
556.65	0.099
556.84	0.099
557.04	0.099
557.24	0.099
557.43	0.099
557.63	0.099
557.83	0.099
558.02	0.099
558.22	0.098
558.42	0.098
558.61	0.098
558.81	0.098
559.01	0.098
559.21	0.098
559.40	0.097
559.60	0.097
559.80	0.098
559.99	0.098
560.19	0.097
560.39	0.097
560.58	0.097
560.78	0.097
560.97	0.098
561.17	0.097
561.37	0.097
561.56	0.097
561.76	0.097
561.96	0.098
562.15	0.098
562.35	0.098
562.55	0.098
562.74	0.098
562.94	0.098
563.14	0.098
563.33	0.098
563.53	0.098
563.73	0.098
563.92	0.098
564.12	0.098
564.31	0.098
564.51	0.098
564.71	0.098
564.90	0.098
565.10	0.098
565.30	0.098
565.49	0.098
565.69	0.098
565.89	0.097
566.08	0.097
566.28	0.097
566.47	0.097
566.67	0.097
566.87	0.097
567.06	0.097
567.26	0.097
567.46	0.096
567.65	0.096
567.85	0.096
568.04	0.096
568.24	0.096
568.44	0.096
568.63	0.095
568.83	0.095
569.02	0.095
569.22	0.095
569.42	0.095
569.61	0.095
569.81	0.095
570.00	0.095
570.20	0.095
570.40	0.095
570.59	0.095
570.79	0.095
570.98	0.095
571.18	0.095
571.38	0.095
571.57	0.095
571.77	0.095
571.96	0.095
572.16	0.095
572.35	0.095
572.55	0.095
572.75	0.095
572.94	0.095
573.14	0.096
573.33	0.096
573.53	0.096
573.73	0.096
573.92	0.096
574.12	0.096
574.31	0.096
574.51	0.096
574.70	0.095
574.90	0.094
575.09	0.092
575.29	0.090
575.49	0.087
575.68	0.085
575.88	0.083
576.07	0.080
576.27	0.078
576.46	0.076
576.66	0.074
576.86	0.072
577.05	0.070
577.25	0.069
577.44	0.069
577.64	0.068
577.83	0.068
578.03	0.066
578.22	0.065
578.42	0.062
578.61	0.058
578.81	0.055
579.00	0.052
579.20	0.050
579.40	0.048
579.59	0.045
579.79	0.043
579.98	0.041
580.18	0.040
580.37	0.039
580.57	0.040
580.76	0.041
580.96	0.042
581.15	0.044
581.35	0.045
581.54	0.046
581.74	0.047
581.93	0.048
582.13	0.048
582.32	0.048
582.52	0.049
582.71	0.050
582.91	0.051
583.10	0.053
583.30	0.055
583.49	0.058
583.69	0.061
583.88	0.064
584.08	0.068
584.27	0.071
584.47	0.075
584.66	0.078
584.86	0.080
585.05	0.081
585.25	0.081
585.44	0.082
585.64	0.081
585.83	0.081
586.03	0.080
586.22	0.081
586.42	0.082
586.61	0.083
586.81	0.085
587.00	0.086
587.20	0.088
587.39	0.089
587.59	0.091
587.78	0.093
587.98	0.095
588.17	0.096
588.37	0.097
588.56	0.096
588.76	0.096
588.95	0.096
589.15	0.096
589.34	0.095
589.54	0.095
589.73	0.095
589.92	0.095
590.12	0.094
590.31	0.094
590.51	0.093
590.70	0.093
590.90	0.093
591.09	0.093
591.29	0.093
591.48	0.093
591.68	0.093
591.87	0.093
592.06	0.093
592.26	0.093
592.45	0.093
592.65	0.093
592.84	0.093
593.04	0.094
593.23	0.094
593.43	0.094
593.62	0.094
593.81	0.094
594.01	0.094
594.20	0.094
594.40	0.095
594.59	0.095
594.79	0.095
594.98	0.095
595.17	0.095
595.37	0.095
595.56	0.095
595.76	0.094
595.95	0.094
596.14	0.094
596.34	0.094
596.53	0.093
596.73	0.093
596.92	0.093
597.12	0.092
597.31	0.092
597.50	0.092
597.70	0.092
597.89	0.092
598.09	0.092
598.28	0.092
598.47	0.092
598.67	0.092
598.86	0.092
599.06	0.092
599.25	0.093
599.44	0.093
599.64	0.093
599.83	0.093
600.03	0.094
600.22	0.094
600.41	0.094
600.61	0.094
600.80	0.094
601.00	0.094
601.19	0.094
601.38	0.095
601.58	0.095
601.77	0.095
601.96	0.095
602.16	0.094
602.35	0.094
602.55	0.094
602.74	0.094
602.93	0.094
603.13	0.093
603.32	0.093
603.51	0.093
603.71	0.092
603.90	0.092
604.09	0.092
604.29	0.091
604.48	0.091
604.68	0.091
604.87	0.092
605.06	0.092
605.26	0.092
605.45	0.092
605.64	0.092
605.84	0.092
606.03	0.092
606.22	0.092
606.42	0.093
606.61	0.093
606.80	0.093
607.00	0.093
607.19	0.093
607.38	0.093
607.58	0.093
607.77	0.093
607.96	0.094
608.16	0.094
608.35	0.094
608.54	0.094
608.74	0.094
608.93	0.094
609.12	0.094
609.32	0.094
609.51	0.094
609.70	0.094
609.90	0.094
610.09	0.094
610.28	0.094
610.48	0.094
610.67	0.093
610.86	0.093
611.06	0.093
611.25	0.093
611.44	0.093
611.64	0.092
611.83	0.092
612.02	0.092
612.21	0.092
612.41	0.092
612.60	0.092
612.79	0.092
612.99	0.092
613.18	0.092
613.37	0.092
613.57	0.092
613.76	0.092
613.95	0.093
614.14	0.093
614.34	0.093
614.53	0.093
614.72	0.093
614.92	0.093
615.11	0.093
615.30	0.093
615.49	0.093
615.69	0.093
615.88	0.094
616.07	0.094
616.26	0.094
616.46	0.094
616.65	0.094
616.84	0.094
617.04	0.094
617.23	0.094
617.42	0.094
617.61	0.094
617.81	0.094
618.00	0.094
618.19	0.094
618.38	0.093
618.58	0.093
618.77	0.093
618.96	0.093
619.15	0.093
619.35	0.093
619.54	0.093
619.73	0.093
619.92	0.093
620.12	0.093
620.31	0.093
620.50	0.093
620.69	0.093
620.89	0.093
621.08	0.093
621.27	0.093
621.46	0.093
621.66	0.093
621.85	0.093
622.04	0.093
622.23	0.092
622.43	0.092
622.62	0.092
622.81	0.092
623.00	0.092
623.19	0.092
623.39	0.092
623.58	0.092
623.77	0.092
623.96	0.092
624.16	0.092
624.35	0.093
624.54	0.093
624.73	0.093
624.92	0.092
625.12	0.092
625.31	0.092
625.50	0.093
625.69	0.093
625.88	0.093
626.08	0.093
626.27	0.093
626.46	0.093
626.65	0.093
626.84	0.093
627.04	0.093
627.23	0.093
627.42	0.093
627.61	0.093
627.80	0.093
628.00	0.093
628.19	0.093
628.38	0.093
628.57	0.093
628.76	0.093
628.96	0.093
629.15	0.093
629.34	0.093
629.53	0.093
629.72	0.093
629.91	0.093
630.11	0.093
630.30	0.093
630.49	0.093
630.68	0.093
630.87	0.093
631.06	0.093
631.26	0.093
631.45	0.093
631.64	0.093
631.83	0.093
632.02	0.094
632.21	0.094
632.41	0.094
632.60	0.094
632.79	0.094
632.98	0.094
633.17	0.093
633.36	0.093
633.55	0.093
633.75	0.093
633.94	0.093
634.13	0.093
634.32	0.093
634.51	0.093
634.70	0.093
634.89	0.093
635.09	0.093
635.28	0.093
635.47	0.093
635.66	0.093
635.85	0.093
636.04	0.093
636.23	0.093
636.43	0.093
636.62	0.093
636.81	0.093
637.00	0.093
637.19	0.093
637.38	0.093
637.57	0.093
637.76	0.093
637.95	0.093
638.15	0.093
638.34	0.093
638.53	0.093
638.72	0.093
638.91	0.093
639.10	0.093
639.29	0.093
639.48	0.093
639.67	0.093
639.87	0.093
640.06	0.093
640.25	0.093
640.44	0.093
640.63	0.093
640.82	0.093
641.01	0.093
641.20	0.093
641.39	0.093
641.58	0.093
641.78	0.093
641.97	0.093
642.16	0.093
642.35	0.093
642.54	0.093
642.73	0.093
642.92	0.093
643.11	0.093
643.30	0.093
643.49	0.093
643.68	0.093
643.87	0.093
644.06	0.093
644.25	0.093
644.45	0.093
644.64	0.093
644.83	0.093
645.02	0.093
645.21	0.093
645.40	0.093
645.59	0.093
645.78	0.093
645.97	0.092
646.16	0.092
646.35	0.092
646.54	0.092
646.73	0.092
646.92	0.092
647.11	0.091
647.30	0.091
647.49	0.091
647.68	0.091
647.88	0.091
648.07	0.091
648.26	0.091
648.45	0.091
648.64	0.091
648.83	0.091
649.02	0.091
649.21	0.091
649.40	0.092
649.59	0.092
649.78	0.092
649.97	0.092
650.16	0.092
650.35	0.092
650.54	0.092
650.73	0.093
650.92	0.093
651.11	0.093
651.30	0.093
651.49	0.092
651.68	0.092
651.87	0.092
652.06	0.092
652.25	0.092
652.44	0.092
652.63	0.090
652.82	0.089
653.01	0.088
653.20	0.087
653.39	0.087
653.58	0.086
653.77	0.086
653.96	0.086
654.15	0.086
654.34	0.085
654.53	0.086
654.72	0.086
654.91	0.087
655.10	0.087
655.29	0.088
655.48	0.088
655.67	0.088
655.86	0.088
656.05	0.089
656.24	0.089
656.43	0.089
656.62	0.089
656.81	0.089
657.00	0.090
657.19	0.091
657.38	0.092
657.57	0.093
657.76	0.093
657.95	0.094
658.14	0.094
658.33	0.095
658.51	0.095
658.70	0.095
658.89	0.096
659.08	0.095
659.27	0.094
659.46	0.093
659.65	0.093
659.84	0.093
660.03	0.092
660.22	0.092
660.41	0.092
660.60	0.092
660.79	0.092
660.98	0.092
661.17	0.092
661.36	0.091
661.55	0.091
661.74	0.091
661.92	0.091
662.11	0.091
662.30	0.091
662.49	0.091
662.68	0.091
662.87	0.091
663.06	0.091
663.25	0.091
663.44	0.091
663.63	0.091
663.82	0.091
664.01	0.091
664.20	0.091
664.38	0.091
664.57	0.091
664.76	0.091
664.95	0.091
665.14	0.091
665.33	0.091
665.52	0.091
665.71	0.091
665.90	0.091
666.09	0.091
666.28	0.091
666.46	0.091
666.65	0.091
666.84	0.092
667.03	0.091
667.22	0.092
667.41	0.091
667.60	0.091
667.79	0.091
667.98	0.091
668.16	0.091
668.35	0.091
668.54	0.091
668.73	0.091
668.92	0.091
669.11	0.091
669.30	0.091
669.49	0.090
669.67	0.090
669.86	0.090
670.05	0.090
670.24	0.090
670.43	0.090
670.62	0.090
670.81	0.090
671.00	0.090
671.18	0.090
671.37	0.090
671.56	0.090
671.75	0.090
671.94	0.090
672.13	0.090
672.32	0.089
672.50	0.090
672.69	0.090
672.88	0.090
673.07	0.090
673.26	0.090
673.45	0.090
673.63	0.090
673.82	0.090
674.01	0.090
674.20	0.091
674.39	0.091
674.58	0.091
674.76	0.091
674.95	0.091
675.14	0.091
675.33	0.090
675.52	0.090
675.71	0.090
675.89	0.090
676.08	0.090
676.27	0.090
676.46	0.090
676.65	0.090
676.84	0.090
677.02	0.090
677.21	0.090
677.40	0.090
677.59	0.090
677.78	0.090
677.96	0.090
678.15	0.090
678.34	0.090
678.53	0.090
678.72	0.090
678.90	0.089
679.09	0.089
679.28	0.089
679.47	0.089
679.66	0.089
679.84	0.089
680.03	0.089
680.22	0.089
680.41	0.089
680.60	0.089
680.78	0.089
680.97	0.090
681.16	0.090
681.35	0.090
681.53	0.090
681.72	0.090
681.91	0.089
682.10	0.089
682.29	0.089
682.47	0.089
682.66	0.089
682.85	0.089
683.04	0.089
683.22	0.088
683.41	0.088
683.60	0.088
683.79	0.088
683.97	0.088
684.16	0.088
684.35	0.089
684.54	0.089
684.72	0.089
684.91	0.089
685.10	0.089
685.29	0.089
685.47	0.089
685.66	0.089
685.85	0.089
686.04	0.089
686.22	0.089
686.41	0.089
686.60	0.089
686.79	0.089
686.97	0.089
687.16	0.089
687.35	0.089
687.54	0.089
687.72	0.089
687.91	0.089
688.10	0.089
688.29	0.089
688.47	0.089
688.66	0.089
688.85	0.089
689.03	0.089
689.22	0.089
689.41	0.089
689.60	0.089
689.78	0.089
689.97	0.089
690.16	0.089
690.34	0.089
690.53	0.089
690.72	0.089
690.91	0.089
691.09	0.089
691.28	0.089
691.47	0.089
691.65	0.089
691.84	0.089
692.03	0.089
692.21	0.089
692.40	0.089
692.59	0.089
692.77	0.089
692.96	0.089
693.15	0.089
693.34	0.089
693.52	0.089
693.71	0.089
693.90	0.089
694.08	0.089
694.27	0.089
694.46	0.089
694.64	0.089
694.83	0.088
695.02	0.088
695.20	0.088
695.39	0.088
695.58	0.088
695.76	0.088
695.95	0.088
696.14	0.088
696.32	0.088
696.51	0.088
696.70	0.088
696.88	0.088
697.07	0.088
697.26	0.088
697.44	0.088
697.63	0.088
697.81	0.088
698.00	0.089
698.19	0.089
698.37	0.089
698.56	0.089
698.75	0.089
698.93	0.089
699.12	0.089
699.31	0.089
699.49	0.089
699.68	0.089
699.87	0.089
700.05	0.088
700.24	0.088
700.42	0.088
700.61	0.088
700.80	0.088
700.98	0.088
701.17	0.088
701.36	0.088
701.54	0.088
701.73	0.088
701.91	0.088
702.10	0.089
702.29	0.089
702.47	0.089
702.66	0.089
702.84	0.089
703.03	0.089
703.22	0.089
703.40	0.089
703.59	0.089
703.77	0.089
703.96	0.089
704.15	0.088
704.33	0.088
704.52	0.088
704.70	0.088
704.89	0.088
705.08	0.088
705.26	0.088
705.45	0.088
705.63	0.088
705.82	0.088
706.00	0.088
706.19	0.087
706.38	0.087
706.56	0.087
706.75	0.087
706.93	0.087
707.12	0.087
707.30	0.087
707.49	0.087
707.68	0.087
707.86	0.087
708.05	0.087
708.23	0.087
708.42	0.087
708.60	0.087
708.79	0.087
708.98	0.087
709.16	0.087
709.35	0.088
709.53	0.088
709.72	0.088
709.90	0.088
710.09	0.088
710.27	0.088
710.46	0.088
710.64	0.088
710.83	0.088
711.02	0.088
711.20	0.088
711.39	0.088
711.57	0.088
711.76	0.087
711.94	0.087
712.13	0.087
712.31	0.087
712.50	0.087
712.68	0.087
712.87	0.087
713.05	0.087
713.24	0.087
713.42	0.087
713.61	0.087
713.79	0.087
713.98	0.087
714.16	0.087
714.35	0.087
714.54	0.087
714.72	0.087
714.91	0.087
715.09	0.087
715.28	0.087
715.46	0.087
715.65	0.087
715.83	0.087
716.02	0.087
716.20	0.087
716.39	0.087
716.57	0.087
716.76	0.087
716.94	0.087
717.12	0.087
717.31	0.087
717.49	0.087
717.68	0.087
717.86	0.087
718.05	0.086
718.23	0.086
718.42	0.086
718.60	0.086
718.79	0.086
718.97	0.086
719.16	0.086
719.34	0.086
719.53	0.086
719.71	0.086
719.90	0.086
720.08	0.086
720.27	0.086
720.45	0.086
720.63	0.086
720.82	0.086
721.00	0.086
721.19	0.086
721.37	0.086
721.56	0.086
721.74	0.086
721.93	0.086
722.11	0.086
722.30	0.086
722.48	0.086
722.66	0.086
722.85	0.086
723.03	0.086
723.22	0.086
723.40	0.085
723.59	0.085
723.77	0.085
723.95	0.085
724.14	0.085
724.32	0.085
724.51	0.085
724.69	0.085
724.88	0.085
725.06	0.085
725.24	0.085
725.43	0.085
725.61	0.084
725.80	0.084
725.98	0.084
726.16	0.084
726.35	0.084
726.53	0.084
726.72	0.084
726.90	0.084
727.09	0.083
727.27	0.084
727.45	0.084
727.64	0.084
727.82	0.084
728.01	0.084
728.19	0.084
728.37	0.084
728.56	0.084
728.74	0.084
728.92	0.084
729.11	0.084
729.29	0.084
729.48	0.084
729.66	0.084
729.84	0.084
730.03	0.084
730.21	0.084
730.40	0.084
730.58	0.083
730.76	0.084
730.95	0.083
731.13	0.083
731.31	0.083
731.50	0.083
731.68	0.083
731.86	0.083
732.05	0.083
732.23	0.083
732.42	0.083
732.60	0.083
732.78	0.083
732.97	0.083
733.15	0.082
733.33	0.082
733.52	0.082
733.70	0.081
733.88	0.081
734.07	0.080
734.25	0.080
734.43	0.079
734.62	0.079
734.80	0.078
734.98	0.078
735.17	0.078
735.35	0.078
735.53	0.077
735.72	0.078
735.90	0.078
736.08	0.078
736.27	0.078
736.45	0.078
736.63	0.077
736.82	0.077
737.00	0.077
737.18	0.078
737.37	0.078
737.55	0.078
737.73	0.078
737.92	0.077
738.10	0.077
738.28	0.077
738.46	0.077
738.65	0.077
738.83	0.078
739.01	0.078
739.20	0.077
739.38	0.077
739.56	0.078
739.75	0.078
739.93	0.078
740.11	0.078
740.29	0.079
740.48	0.079
740.66	0.079
740.84	0.078
741.03	0.078
741.21	0.079
741.39	0.079
741.57	0.078
741.76	0.079
741.94	0.078
742.12	0.078
742.31	0.077
742.49	0.077
742.67	0.077
742.85	0.077
743.04	0.077
743.22	0.076
743.40	0.075
743.58	0.076
743.77	0.075
743.95	0.076
744.13	0.076
744.31	0.076
744.50	0.076
744.68	0.076
744.86	0.077
745.04	0.077
745.23	0.076
745.41	0.077
745.59	0.076
745.77	0.077
745.96	0.077
746.14	0.077
746.32	0.077
746.50	0.077
746.69	0.077
746.87	0.077
747.05	0.076
747.23	0.076
747.42	0.077
747.60	0.077
747.78	0.077
747.96	0.077
748.14	0.078
748.33	0.079
748.51	0.079
748.69	0.079
748.87	0.079
749.06	0.080
749.24	0.081
749.42	0.080
749.60	0.080
749.78	0.080
749.97	0.080
750.15	0.080
750.33	0.079
750.51	0.079
750.69	0.079
750.88	0.078
751.06	0.078
751.24	0.078
751.42	0.079
751.60	0.079
751.79	0.079
751.97	0.079
752.15	0.078
752.33	0.078
752.51	0.078
752.69	0.078
752.88	0.079
753.06	0.079
753.24	0.078
753.42	0.078
753.60	0.078
753.78	0.078
753.97	0.078
754.15	0.078
754.33	0.078
754.51	0.077
754.69	0.077
754.87	0.076
755.06	0.076
755.24	0.075
755.42	0.075
755.60	0.075
755.78	0.075
755.96	0.075
756.15	0.075
756.33	0.075
756.51	0.075
756.69	0.076
756.87	0.076
757.05	0.076
757.23	0.076
757.42	0.076
757.60	0.076
757.78	0.076
757.96	0.075
758.14	0.076
758.32	0.077
758.50	0.077
758.69	0.077
758.87	0.077
759.05	0.078
759.23	0.078
759.41	0.079
759.59	0.079
759.77	0.079
759.95	0.080
760.13	0.079
760.32	0.079
760.50	0.080
760.68	0.080
760.86	0.080
761.04	0.080
761.22	0.080
761.40	0.080
761.58	0.080
761.76	0.080
761.95	0.080
762.13	0.080
762.31	0.080
762.49	0.080
762.67	0.080
762.85	0.079
763.03	0.079
763.21	0.078
763.39	0.078
763.57	0.078
763.75	0.078
763.94	0.077
764.12	0.077
764.30	0.077
764.48	0.077
764.66	0.077
764.84	0.076
765.02	0.077
765.20	0.077
765.38	0.077
765.56	0.077
765.74	0.076
765.92	0.076
766.10	0.077
766.28	0.077
766.46	0.076
766.65	0.076
766.83	0.077
767.01	0.076
767.19	0.077
767.37	0.077
767.55	0.078
767.73	0.078
767.91	0.078
768.09	0.078
768.27	0.078
768.45	0.078
768.63	0.078
768.81	0.078
768.99	0.078
769.17	0.078
769.35	0.078
769.53	0.078
769.71	0.078
769.89	0.078
770.07	0.079
770.25	0.079
770.43	0.080
770.61	0.080
770.79	0.080
770.97	0.080
771.15	0.081
771.33	0.081
771.51	0.081
771.69	0.081
771.87	0.081
772.05	0.081
772.24	0.080
772.42	0.080
772.60	0.080
772.78	0.080
772.96	0.080
773.14	0.080
773.32	0.080
773.49	0.080
773.67	0.081
773.85	0.081
774.03	0.081
774.21	0.081
774.39	0.081
774.57	0.081
774.75	0.081
774.93	0.081
775.11	0.081
775.29	0.081
775.47	0.081
775.65	0.080
775.83	0.080
776.01	0.080
776.19	0.079
776.37	0.079
776.55	0.079
776.73	0.079
776.91	0.079
777.09	0.079
777.27	0.078
777.45	0.078
777.63	0.078
777.81	0.079
777.99	0.079
778.17	0.079
778.35	0.080
778.53	0.079
778.71	0.079
778.89	0.079
779.07	0.079
779.24	0.079
779.42	0.079
779.60	0.079
779.78	0.079
779.96	0.078
780.14	0.078
780.32	0.078
780.50	0.078
780.68	0.077
780.86	0.077
781.04	0.078
781.22	0.078
781.40	0.079
781.58	0.079
781.75	0.079
781.93	0.079
782.11	0.080
782.29	0.080
782.47	0.080
782.65	0.082
782.83	0.082
783.01	0.082
783.19	0.082
783.37	0.081
783.55	0.081
783.72	0.081
783.90	0.081
784.08	0.082
784.26	0.081
784.44	0.081
784.62	0.080
784.80	0.080
784.98	0.081
785.16	0.081
785.33	0.081
785.51	0.081
785.69	0.081
785.87	0.081
786.05	0.080
786.23	0.080
786.41	0.080
786.59	0.080
786.77	0.081
786.94	0.080
787.12	0.080
787.30	0.079
787.48	0.079
787.66	0.080
787.84	0.080
788.02	0.080
788.19	0.080
788.37	0.080
788.55	0.080
788.73	0.079
788.91	0.079
789.09	0.079
789.27	0.080
789.44	0.079
789.62	0.080
789.80	0.080
789.98	0.079
790.16	0.079
790.34	0.079
790.51	0.080
790.69	0.080
790.87	0.080
791.05	0.080
791.23	0.080
791.41	0.080
791.58	0.080
791.76	0.080
791.94	0.080
792.12	0.080
792.30	0.080
792.48	0.079
792.65	0.080
792.83	0.079
793.01	0.080
793.19	0.080
793.37	0.080
793.54	0.080
793.72	0.080
793.90	0.080
794.08	0.080
794.26	0.081
794.43	0.081
794.61	0.082
794.79	0.082
794.97	0.082
795.15	0.082
795.32	0.082
795.50	0.082
795.68	0.082
795.86	0.082
796.04	0.082
796.21	0.082
796.39	0.082
796.57	0.082
796.75	0.082
796.92	0.082
797.10	0.082
797.28	0.082
797.46	0.081
797.64	0.081
797.81	0.080
797.99	0.080
798.17	0.079
798.35	0.080
798.52	0.080
798.70	0.079
798.88	0.079
799.06	0.079
799.23	0.079
799.41	0.079
799.59	0.080
799.77	0.080
799.94	0.080
800.12	0.081
800.30	0.080
800.48	0.080
800.65	0.080
800.83	0.080
801.01	0.080
801.19	0.080
801.36	0.080
801.54	0.080
801.72	0.080
801.90	0.080
802.07	0.080
802.25	0.080
802.43	0.080
802.60	0.080
802.78	0.080
802.96	0.080
803.14	0.080
803.31	0.080
803.49	0.080
803.67	0.080
803.84	0.080
804.02	0.080
804.20	0.081
804.38	0.080
804.55	0.080
804.73	0.080
804.91	0.080
805.08	0.080
805.26	0.080
805.44	0.080
805.61	0.080
805.79	0.080
805.97	0.080
806.15	0.080
806.32	0.080
806.50	0.080
806.68	0.080
806.85	0.080
807.03	0.081
807.21	0.080
807.38	0.080
807.56	0.081
807.74	0.080
807.91	0.080
808.09	0.080
808.27	0.080
808.44	0.080
808.62	0.080
808.80	0.080
808.97	0.080
809.15	0.080
809.33	0.080
809.50	0.080
809.68	0.080
809.86	0.080
810.03	0.080
810.21	0.080
810.39	0.080
810.56	0.080
810.74	0.080
810.91	0.079
811.09	0.079
811.27	0.079
811.44	0.079
811.62	0.079
811.80	0.079
811.97	0.078
812.15	0.079
812.33	0.079
812.50	0.079
812.68	0.079
812.85	0.080
813.03	0.079
813.21	0.079
813.38	0.079
813.56	0.079
813.74	0.080
813.91	0.080
814.09	0.079
814.26	0.079
814.44	0.079
814.62	0.078
814.79	0.078
814.97	0.079
815.14	0.079
815.32	0.079
815.50	0.078
815.67	0.078
815.85	0.078
816.02	0.078
816.20	0.078
816.38	0.079
816.55	0.078
816.73	0.079
816.90	0.079
817.08	0.078
817.26	0.078
817.43	0.078
817.61	0.078
817.78	0.078
817.96	0.078
818.13	0.078
818.31	0.079
818.49	0.079
818.66	0.078
818.84	0.078
819.01	0.078
819.19	0.079
819.36	0.079
819.54	0.079
819.71	0.079
819.89	0.078
820.07	0.079
820.24	0.078
820.42	0.079
820.59	0.079
820.77	0.079
820.94	0.079
821.12	0.079
821.29	0.079
821.47	0.079
821.64	0.080
821.82	0.080
822.00	0.080
822.17	0.080
822.35	0.079
822.52	0.079
822.70	0.079
822.87	0.079
823.05	0.078
823.22	0.078
823.40	0.077
823.57	0.077
823.75	0.077
823.92	0.077
824.10	0.076
824.27	0.076
824.45	0.076
824.62	0.076
824.80	0.076
824.97	0.076
825.15	0.076
825.32	0.076
825.50	0.076
825.67	0.076
825.85	0.075
826.02	0.077
826.20	0.077
826.37	0.077
826.55	0.076
826.72	0.076
826.90	0.077
827.07	0.076
827.25	0.076
827.42	0.076
827.60	0.076
827.77	0.076
827.95	0.075
828.12	0.075
828.30	0.075
828.47	0.075
828.65	0.075
828.82	0.076
829.00	0.076
829.17	0.076
829.34	0.076
829.52	0.076
829.69	0.076
829.87	0.076
830.04	0.077
830.22	0.077
830.39	0.076
830.57	0.076
830.74	0.075
830.92	0.075
831.09	0.075
831.26	0.075
831.44	0.075
831.61	0.076
831.79	0.076
831.96	0.074
832.14	0.075
832.31	0.074
832.49	0.074
832.66	0.073
832.83	0.074
833.01	0.074
833.18	0.074
833.36	0.072
833.53	0.072
833.70	0.072
833.88	0.073
834.05	0.072
834.23	0.072
834.40	0.072
834.58	0.072
834.75	0.073
834.92	0.073
835.10	0.072
835.27	0.070
835.45	0.070
835.62	0.069
835.79	0.069
835.97	0.068
836.14	0.068
836.32	0.067
836.49	0.066
836.66	0.065
836.84	0.064
837.01	0.064
837.18	0.065
837.36	0.065
837.53	0.067
837.71	0.066
837.88	0.067
838.05	0.064
838.23	0.065
838.40	0.065
838.58	0.064
838.75	0.064
838.92	0.063
839.10	0.061
839.27	0.061
839.44	0.060
839.62	0.060
839.79	0.061
839.96	0.063
840.14	0.063
840.31	0.064
840.48	0.065
840.66	0.068
840.83	0.067
841.01	0.068
841.18	0.069
841.35	0.068
841.53	0.065
841.70	0.065
841.87	0.064
842.05	0.063
842.22	0.063
842.39	0.064
842.57	0.061
842.74	0.063
842.91	0.064
843.09	0.065
843.26	0.067
843.43	0.071
843.60	0.069
843.78	0.072
843.95	0.072
844.12	0.073
844.30	0.073
844.47	0.072
844.64	0.073
844.82	0.070
844.99	0.069
845.16	0.067
845.34	0.066
845.51	0.066
845.68	0.065
845.85	0.064
846.03	0.062
846.20	0.062
846.37	0.064
846.55	0.063
846.72	0.065
846.89	0.064
847.06	0.063
847.24	0.066
847.41	0.064
847.58	0.063
847.76	0.067
847.93	0.068
848.10	0.068
848.27	0.068
848.45	0.070
848.62	0.072
848.79	0.072
848.97	0.073
849.14	0.070
849.31	0.071
849.48	0.073
849.66	0.069
849.83	0.067
850.00	0.065
850.17	0.062
850.35	0.059
850.52	0.055
850.69	0.055
850.86	0.056
851.04	0.057
851.21	0.057
851.38	0.057
851.55	0.055
851.72	0.054
851.90	0.055
852.07	0.055
852.24	0.056
852.41	0.054
852.59	0.056
852.76	0.055
852.93	0.054
853.10	0.052
853.28	0.052
853.45	0.052
853.62	0.053
853.79	0.053
853.96	0.055
854.14	0.056
854.31	0.058
854.48	0.057
854.65	0.057
854.82	0.061
855.00	0.062
855.17	0.062
855.34	0.065
855.51	0.065
855.68	0.063
855.86	0.065
856.03	0.063
856.20	0.061
856.37	0.057
856.54	0.056
856.72	0.054
856.89	0.051
857.06	0.049
857.23	0.050
857.40	0.049
857.57	0.049
857.75	0.048
857.92	0.054
858.09	0.056
858.26	0.056
858.43	0.057
858.60	0.060
858.78	0.059
858.95	0.061
859.12	0.060
859.29	0.059
859.46	0.060
859.63	0.063
859.81	0.059
859.98	0.059
860.15	0.062
860.32	0.064
860.49	0.058
860.66	0.058
860.83	0.056
861.01	0.053
861.18	0.052
861.35	0.055
861.52	0.052
861.69	0.048
861.86	0.047
862.03	0.048
862.21	0.050
862.38	0.054
862.55	0.056
862.72	0.059
862.89	0.062
863.06	0.063
863.23	0.065
863.40	0.066
863.58	0.067
863.75	0.067
863.92	0.062
864.09	0.061
864.26	0.059
864.43	0.055
864.60	0.057
864.77	0.056
864.94	0.061
865.11	0.057
865.29	0.057
865.46	0.060
865.63	0.059
865.80	0.063
865.97	0.061
866.14	0.066
866.31	0.066
866.48	0.061
866.65	0.065
866.82	0.064
866.99	0.063
867.16	0.059
867.34	0.059
867.51	0.063
867.68	0.059
867.85	0.057
868.02	0.051
868.19	0.051
868.36	0.056
868.53	0.050
868.70	0.047
868.87	0.044
869.04	0.051
869.21	0.055
869.38	0.051
869.55	0.056
869.72	0.057
869.89	0.064
870.06	0.066
870.24	0.068
870.41	0.069
870.58	0.068
870.75	0.073
870.92	0.071
871.09	0.069
871.26	0.072
871.43	0.074
871.60	0.077
871.77	0.073
871.94	0.072
872.11	0.067
872.28	0.065
872.45	0.069
872.62	0.066
872.79	0.064
872.96	0.060
873.13	0.057
873.30	0.053
873.47	0.052
873.64	0.052
873.81	0.055
873.98	0.060
874.15	0.067
874.32	0.062
874.49	0.067
874.66	0.066
874.83	0.075
875.00	0.071
875.17	0.069
875.34	0.066
875.51	0.068
875.68	0.062
875.85	0.060
876.02	0.056
876.19	0.055
876.36	0.057
876.53	0.055
876.70	0.050
876.87	0.058
877.04	0.056
877.21	0.060
877.38	0.059
877.55	0.063
877.72	0.066
877.89	0.066
878.06	0.062
878.23	0.055
878.39	0.060
878.56	0.062
878.73	0.057
878.90	0.058
879.07	0.054
879.24	0.052
879.41	0.050
879.58	0.052
879.75	0.051
879.92	0.056
880.09	0.058
880.26	0.053
880.43	0.049
880.60	0.047
880.77	0.054
880.94	0.058
881.11	0.063
881.27	0.068
881.44	0.057
881.61	0.056
881.78	0.055
881.95	0.054
882.12	0.052
882.29	0.055
882.46	0.058
882.63	0.059
882.80	0.058
882.97	0.053
883.14	0.045
883.30	0.052
883.47	0.054
883.64	0.055
883.81	0.054
883.98	0.060
884.15	0.058
884.32	0.064
884.49	0.063
884.66	0.059
884.82	0.064
884.99	0.059
885.16	0.061
885.33	0.058
885.50	0.056
885.67	0.062
885.84	0.065
886.01	0.059
886.17	0.052
886.34	0.053
886.51	0.056
886.68	0.052
886.85	0.059
887.02	0.063
887.19	0.067
887.36	0.059
887.52	0.059
887.69	0.062
887.86	0.069
888.03	0.071
888.20	0.070
888.37	0.067
888.54	0.059
888.70	0.058
888.87	0.053
889.04	0.055
889.21	0.062
889.38	0.060
889.55	0.050
889.71	0.083
889.88	0.066
890.05	0.009
890.22	0.074
890.39	0.008
>>>>>End Processed Spectral Data<<<<<
