SpectraSuite Data File
++++++++++++++++++++++++++++++++++++
Date: Mon Jun 15 09:39:55 PDT 2015
User: introlabs
Dark Spectrum Present: Yes
Reference Spectrum Present: Yes
Number of Sampled Component Spectra: 1
Spectrometers: USB4H08886
Integration Time (usec): 44366 (USB4H08886)
Spectra Averaged: 20 (USB4H08886)
Boxcar Smoothing: 5 (USB4H08886)
Correct for Electrical Dark: Yes (USB4H08886)
Strobe/Lamp Enabled: No (USB4H08886)
Correct for Detector Non-linearity: Yes (USB4H08886)
Correct for Stray Light: Yes (USB4H08886)
Number of Pixels in Processed Spectrum: 3648
>>>>>Begin Processed Spectral Data<<<<<
178.14	-0.000
178.36	-0.000
178.57	-0.000
178.79	-0.000
179.01	-0.986
179.22	-0.000
179.44	-0.000
179.65	-0.485
179.87	-0.122
180.08	0.253
180.30	0.241
180.52	0.184
180.73	0.028
180.95	0.051
181.16	0.077
181.38	0.069
181.59	0.069
181.81	0.055
182.03	0.067
182.24	0.053
182.46	0.041
182.67	0.031
182.89	0.031
183.10	0.032
183.32	0.027
183.54	0.023
183.75	0.026
183.97	0.031
184.18	0.031
184.40	0.021
184.61	0.029
184.83	0.032
185.04	0.027
185.26	0.027
185.48	0.024
185.69	0.016
185.91	0.018
186.12	0.013
186.34	0.014
186.55	0.006
186.77	0.008
186.98	0.001
187.20	-0.006
187.42	-0.002
187.63	-0.004
187.85	-0.002
188.06	0.002
188.28	0.001
188.49	0.007
188.71	0.002
188.92	0.001
189.14	-0.002
189.36	0.002
189.57	0.003
189.79	0.002
190.00	0.002
190.22	-0.004
190.43	0.002
190.65	-0.004
190.86	-0.004
191.08	-0.002
191.29	0.001
191.51	0.004
191.72	-0.000
191.94	-0.003
192.16	-0.006
192.37	-0.007
192.59	-0.003
192.80	-0.013
193.02	-0.002
193.23	-0.000
193.45	-0.004
193.66	-0.006
193.88	-0.007
194.09	-0.002
194.31	-0.002
194.52	0.004
194.74	0.002
194.95	-0.004
195.17	-0.002
195.38	-0.012
195.60	-0.022
195.81	-0.022
196.03	-0.020
196.25	-0.014
196.46	-0.019
196.68	-0.017
196.89	-0.020
197.11	-0.016
197.32	-0.011
197.54	-0.013
197.75	-0.003
197.97	0.003
198.18	0.001
198.40	0.009
198.61	-0.002
198.83	0.000
199.04	0.003
199.26	0.003
199.47	0.001
199.69	0.004
199.90	0.022
200.12	0.010
200.33	0.013
200.55	0.015
200.76	-0.003
200.98	0.000
201.19	-0.004
201.41	-0.007
201.62	-0.004
201.84	-0.002
202.05	-0.002
202.27	-0.012
202.48	-0.005
202.70	-0.008
202.91	-0.006
203.13	0.001
203.34	-0.005
203.56	-0.003
203.77	0.000
203.99	-0.009
204.20	-0.015
204.42	-0.020
204.63	-0.021
204.85	-0.022
205.06	-0.025
205.28	-0.026
205.49	-0.016
205.71	-0.007
205.92	-0.005
206.14	-0.013
206.35	0.004
206.56	0.019
206.78	0.020
206.99	0.024
207.21	0.026
207.42	0.027
207.64	0.024
207.85	0.019
208.07	0.024
208.28	0.022
208.50	0.027
208.71	0.020
208.93	0.015
209.14	0.023
209.36	0.022
209.57	0.026
209.79	0.032
210.00	0.040
210.22	0.038
210.43	0.033
210.64	0.033
210.86	0.021
211.07	0.018
211.29	0.014
211.50	0.008
211.72	-0.002
211.93	-0.011
212.15	-0.012
212.36	-0.015
212.58	-0.015
212.79	-0.014
213.01	-0.017
213.22	-0.005
213.43	-0.004
213.65	-0.004
213.86	-0.004
214.08	0.012
214.29	0.014
214.51	0.011
214.72	0.008
214.94	0.009
215.15	0.012
215.36	0.014
215.58	0.014
215.79	0.010
216.01	0.010
216.22	0.013
216.44	0.004
216.65	0.004
216.87	0.008
217.08	0.007
217.29	0.012
217.51	0.011
217.72	0.005
217.94	0.008
218.15	0.016
218.37	0.012
218.58	0.006
218.80	0.014
219.01	0.009
219.22	0.006
219.44	0.008
219.65	0.002
219.87	-0.001
220.08	-0.002
220.30	-0.008
220.51	-0.012
220.72	-0.010
220.94	-0.016
221.15	-0.021
221.37	-0.019
221.58	-0.020
221.79	-0.016
222.01	-0.022
222.22	-0.025
222.44	-0.022
222.65	-0.023
222.87	-0.025
223.08	-0.027
223.29	-0.021
223.51	-0.025
223.72	-0.024
223.94	-0.027
224.15	-0.026
224.36	-0.022
224.58	-0.025
224.79	-0.020
225.01	-0.016
225.22	-0.015
225.44	-0.017
225.65	-0.017
225.86	-0.014
226.08	-0.014
226.29	-0.015
226.51	-0.018
226.72	-0.016
226.93	-0.012
227.15	-0.017
227.36	-0.022
227.58	-0.025
227.79	-0.018
228.00	-0.021
228.22	-0.026
228.43	-0.028
228.65	-0.026
228.86	-0.027
229.07	-0.029
229.29	-0.029
229.50	-0.031
229.72	-0.030
229.93	-0.033
230.14	-0.036
230.36	-0.035
230.57	-0.034
230.78	-0.036
231.00	-0.039
231.21	-0.043
231.43	-0.043
231.64	-0.044
231.85	-0.044
232.07	-0.043
232.28	-0.041
232.50	-0.043
232.71	-0.046
232.92	-0.048
233.14	-0.050
233.35	-0.048
233.56	-0.047
233.78	-0.050
233.99	-0.051
234.21	-0.050
234.42	-0.052
234.63	-0.053
234.85	-0.054
235.06	-0.054
235.27	-0.054
235.49	-0.051
235.70	-0.052
235.91	-0.053
236.13	-0.051
236.34	-0.052
236.56	-0.053
236.77	-0.053
236.98	-0.052
237.20	-0.052
237.41	-0.050
237.62	-0.049
237.84	-0.051
238.05	-0.049
238.26	-0.049
238.48	-0.049
238.69	-0.048
238.91	-0.047
239.12	-0.046
239.33	-0.046
239.55	-0.044
239.76	-0.044
239.97	-0.043
240.19	-0.042
240.40	-0.042
240.61	-0.042
240.83	-0.041
241.04	-0.041
241.25	-0.040
241.47	-0.039
241.68	-0.037
241.89	-0.038
242.11	-0.037
242.32	-0.037
242.53	-0.037
242.75	-0.036
242.96	-0.035
243.17	-0.034
243.39	-0.033
243.60	-0.033
243.81	-0.033
244.03	-0.034
244.24	-0.033
244.45	-0.032
244.67	-0.032
244.88	-0.031
245.09	-0.030
245.31	-0.030
245.52	-0.030
245.73	-0.029
245.95	-0.030
246.16	-0.029
246.37	-0.028
246.59	-0.028
246.80	-0.028
247.01	-0.028
247.23	-0.028
247.44	-0.028
247.65	-0.028
247.87	-0.028
248.08	-0.027
248.29	-0.027
248.51	-0.027
248.72	-0.026
248.93	-0.026
249.15	-0.025
249.36	-0.025
249.57	-0.025
249.78	-0.025
250.00	-0.024
250.21	-0.024
250.42	-0.024
250.64	-0.023
250.85	-0.023
251.06	-0.023
251.28	-0.022
251.49	-0.022
251.70	-0.022
251.92	-0.022
252.13	-0.021
252.34	-0.021
252.55	-0.021
252.77	-0.021
252.98	-0.021
253.19	-0.021
253.41	-0.021
253.62	-0.021
253.83	-0.021
254.05	-0.021
254.26	-0.021
254.47	-0.021
254.68	-0.021
254.90	-0.021
255.11	-0.020
255.32	-0.020
255.54	-0.020
255.75	-0.020
255.96	-0.020
256.17	-0.020
256.39	-0.020
256.60	-0.020
256.81	-0.020
257.03	-0.020
257.24	-0.020
257.45	-0.020
257.66	-0.020
257.88	-0.020
258.09	-0.021
258.30	-0.020
258.51	-0.021
258.73	-0.021
258.94	-0.021
259.15	-0.021
259.37	-0.021
259.58	-0.022
259.79	-0.022
260.00	-0.022
260.22	-0.022
260.43	-0.022
260.64	-0.023
260.85	-0.023
261.07	-0.023
261.28	-0.024
261.49	-0.024
261.71	-0.024
261.92	-0.024
262.13	-0.024
262.34	-0.024
262.56	-0.024
262.77	-0.024
262.98	-0.024
263.19	-0.024
263.41	-0.025
263.62	-0.024
263.83	-0.025
264.04	-0.025
264.26	-0.025
264.47	-0.025
264.68	-0.026
264.89	-0.026
265.11	-0.026
265.32	-0.026
265.53	-0.026
265.74	-0.027
265.96	-0.027
266.17	-0.027
266.38	-0.027
266.59	-0.028
266.81	-0.028
267.02	-0.028
267.23	-0.029
267.44	-0.029
267.65	-0.029
267.87	-0.030
268.08	-0.030
268.29	-0.030
268.50	-0.030
268.72	-0.030
268.93	-0.031
269.14	-0.031
269.35	-0.031
269.57	-0.031
269.78	-0.032
269.99	-0.032
270.20	-0.032
270.41	-0.032
270.63	-0.032
270.84	-0.033
271.05	-0.033
271.26	-0.033
271.48	-0.034
271.69	-0.034
271.90	-0.034
272.11	-0.034
272.32	-0.035
272.54	-0.035
272.75	-0.035
272.96	-0.036
273.17	-0.036
273.39	-0.036
273.60	-0.036
273.81	-0.036
274.02	-0.036
274.23	-0.036
274.45	-0.036
274.66	-0.036
274.87	-0.037
275.08	-0.037
275.29	-0.037
275.51	-0.036
275.72	-0.036
275.93	-0.036
276.14	-0.036
276.35	-0.036
276.57	-0.036
276.78	-0.036
276.99	-0.036
277.20	-0.036
277.41	-0.036
277.63	-0.036
277.84	-0.035
278.05	-0.035
278.26	-0.035
278.47	-0.035
278.69	-0.035
278.90	-0.035
279.11	-0.035
279.32	-0.034
279.53	-0.034
279.74	-0.034
279.96	-0.033
280.17	-0.033
280.38	-0.033
280.59	-0.033
280.80	-0.032
281.02	-0.032
281.23	-0.032
281.44	-0.032
281.65	-0.032
281.86	-0.032
282.07	-0.032
282.29	-0.031
282.50	-0.031
282.71	-0.031
282.92	-0.031
283.13	-0.030
283.35	-0.030
283.56	-0.030
283.77	-0.030
283.98	-0.030
284.19	-0.029
284.40	-0.029
284.62	-0.029
284.83	-0.028
285.04	-0.028
285.25	-0.027
285.46	-0.027
285.67	-0.026
285.88	-0.026
286.10	-0.025
286.31	-0.024
286.52	-0.023
286.73	-0.022
286.94	-0.022
287.15	-0.021
287.37	-0.021
287.58	-0.020
287.79	-0.019
288.00	-0.019
288.21	-0.018
288.42	-0.018
288.63	-0.017
288.85	-0.017
289.06	-0.016
289.27	-0.016
289.48	-0.015
289.69	-0.014
289.90	-0.014
290.11	-0.013
290.33	-0.013
290.54	-0.012
290.75	-0.012
290.96	-0.012
291.17	-0.011
291.38	-0.011
291.59	-0.010
291.81	-0.010
292.02	-0.010
292.23	-0.009
292.44	-0.009
292.65	-0.009
292.86	-0.008
293.07	-0.008
293.28	-0.008
293.50	-0.008
293.71	-0.008
293.92	-0.007
294.13	-0.007
294.34	-0.007
294.55	-0.007
294.76	-0.006
294.97	-0.006
295.19	-0.006
295.40	-0.006
295.61	-0.006
295.82	-0.006
296.03	-0.006
296.24	-0.006
296.45	-0.006
296.66	-0.006
296.87	-0.006
297.09	-0.006
297.30	-0.006
297.51	-0.006
297.72	-0.006
297.93	-0.006
298.14	-0.006
298.35	-0.005
298.56	-0.006
298.77	-0.006
298.99	-0.005
299.20	-0.005
299.41	-0.005
299.62	-0.005
299.83	-0.005
300.04	-0.005
300.25	-0.005
300.46	-0.005
300.67	-0.005
300.88	-0.005
301.10	-0.004
301.31	-0.005
301.52	-0.005
301.73	-0.005
301.94	-0.005
302.15	-0.005
302.36	-0.005
302.57	-0.005
302.78	-0.005
302.99	-0.005
303.20	-0.005
303.41	-0.005
303.63	-0.005
303.84	-0.005
304.05	-0.005
304.26	-0.005
304.47	-0.005
304.68	-0.005
304.89	-0.004
305.10	-0.004
305.31	-0.004
305.52	-0.004
305.73	-0.004
305.94	-0.004
306.15	-0.004
306.37	-0.004
306.58	-0.004
306.79	-0.004
307.00	-0.004
307.21	-0.004
307.42	-0.004
307.63	-0.004
307.84	-0.004
308.05	-0.004
308.26	-0.004
308.47	-0.004
308.68	-0.004
308.89	-0.004
309.10	-0.004
309.31	-0.004
309.52	-0.004
309.73	-0.005
309.95	-0.005
310.16	-0.005
310.37	-0.005
310.58	-0.005
310.79	-0.005
311.00	-0.005
311.21	-0.005
311.42	-0.004
311.63	-0.004
311.84	-0.004
312.05	-0.004
312.26	-0.004
312.47	-0.004
312.68	-0.004
312.89	-0.004
313.10	-0.004
313.31	-0.004
313.52	-0.004
313.73	-0.004
313.94	-0.004
314.15	-0.004
314.36	-0.004
314.57	-0.004
314.78	-0.004
314.99	-0.004
315.21	-0.004
315.42	-0.004
315.63	-0.004
315.84	-0.004
316.05	-0.004
316.26	-0.004
316.47	-0.004
316.68	-0.004
316.89	-0.004
317.10	-0.004
317.31	-0.004
317.52	-0.004
317.73	-0.004
317.94	-0.004
318.15	-0.004
318.36	-0.004
318.57	-0.004
318.78	-0.003
318.99	-0.003
319.20	-0.003
319.41	-0.003
319.62	-0.003
319.83	-0.003
320.04	-0.003
320.25	-0.003
320.46	-0.004
320.67	-0.003
320.88	-0.004
321.09	-0.004
321.30	-0.004
321.51	-0.004
321.72	-0.004
321.93	-0.004
322.14	-0.004
322.35	-0.004
322.56	-0.004
322.77	-0.004
322.98	-0.004
323.19	-0.004
323.40	-0.004
323.61	-0.004
323.82	-0.003
324.03	-0.003
324.24	-0.003
324.45	-0.003
324.66	-0.003
324.87	-0.003
325.08	-0.003
325.29	-0.003
325.50	-0.003
325.71	-0.003
325.92	-0.003
326.13	-0.003
326.34	-0.003
326.55	-0.003
326.76	-0.003
326.97	-0.003
327.18	-0.003
327.39	-0.003
327.60	-0.003
327.80	-0.003
328.01	-0.003
328.22	-0.003
328.43	-0.003
328.64	-0.003
328.85	-0.003
329.06	-0.003
329.27	-0.003
329.48	-0.003
329.69	-0.003
329.90	-0.003
330.11	-0.003
330.32	-0.003
330.53	-0.003
330.74	-0.003
330.95	-0.003
331.16	-0.003
331.37	-0.003
331.58	-0.003
331.79	-0.003
332.00	-0.003
332.21	-0.002
332.42	-0.002
332.63	-0.002
332.83	-0.002
333.04	-0.002
333.25	-0.002
333.46	-0.002
333.67	-0.002
333.88	-0.002
334.09	-0.002
334.30	-0.002
334.51	-0.002
334.72	-0.002
334.93	-0.002
335.14	-0.002
335.35	-0.002
335.56	-0.002
335.77	-0.002
335.98	-0.002
336.18	-0.002
336.39	-0.002
336.60	-0.002
336.81	-0.002
337.02	-0.001
337.23	-0.001
337.44	-0.001
337.65	-0.001
337.86	-0.001
338.07	-0.001
338.28	-0.001
338.49	-0.001
338.70	-0.001
338.91	-0.001
339.11	-0.001
339.32	-0.001
339.53	-0.001
339.74	-0.001
339.95	-0.001
340.16	-0.001
340.37	-0.001
340.58	-0.001
340.79	-0.001
341.00	-0.000
341.21	-0.000
341.41	-0.000
341.62	-0.001
341.83	-0.000
342.04	-0.001
342.25	-0.000
342.46	-0.000
342.67	-0.000
342.88	-0.000
343.09	-0.000
343.30	-0.000
343.50	-0.000
343.71	-0.000
343.92	0.000
344.13	0.000
344.34	0.000
344.55	0.000
344.76	0.000
344.97	0.000
345.18	0.000
345.38	0.000
345.59	0.000
345.80	0.000
346.01	0.000
346.22	0.000
346.43	0.000
346.64	0.000
346.85	0.001
347.06	0.001
347.26	0.001
347.47	0.001
347.68	0.001
347.89	0.001
348.10	0.001
348.31	0.001
348.52	0.001
348.73	0.001
348.93	0.001
349.14	0.000
349.35	0.000
349.56	0.001
349.77	0.001
349.98	0.001
350.19	0.001
350.39	0.001
350.60	0.001
350.81	0.001
351.02	0.001
351.23	0.001
351.44	0.001
351.65	0.001
351.86	0.001
352.06	0.001
352.27	0.001
352.48	0.001
352.69	0.001
352.90	0.002
353.11	0.002
353.31	0.002
353.52	0.002
353.73	0.002
353.94	0.002
354.15	0.002
354.36	0.002
354.57	0.002
354.77	0.002
354.98	0.002
355.19	0.002
355.40	0.002
355.61	0.002
355.82	0.002
356.02	0.002
356.23	0.002
356.44	0.002
356.65	0.003
356.86	0.002
357.07	0.002
357.27	0.002
357.48	0.002
357.69	0.002
357.90	0.002
358.11	0.002
358.32	0.002
358.52	0.002
358.73	0.002
358.94	0.002
359.15	0.002
359.36	0.003
359.56	0.003
359.77	0.003
359.98	0.003
360.19	0.003
360.40	0.003
360.61	0.003
360.81	0.003
361.02	0.003
361.23	0.003
361.44	0.003
361.65	0.003
361.85	0.003
362.06	0.003
362.27	0.003
362.48	0.003
362.69	0.003
362.89	0.003
363.10	0.003
363.31	0.003
363.52	0.003
363.73	0.003
363.93	0.003
364.14	0.003
364.35	0.003
364.56	0.003
364.77	0.003
364.97	0.003
365.18	0.003
365.39	0.003
365.60	0.003
365.81	0.003
366.01	0.003
366.22	0.003
366.43	0.003
366.64	0.003
366.84	0.003
367.05	0.004
367.26	0.004
367.47	0.004
367.68	0.004
367.88	0.004
368.09	0.004
368.30	0.004
368.51	0.004
368.71	0.004
368.92	0.004
369.13	0.004
369.34	0.004
369.55	0.004
369.75	0.004
369.96	0.004
370.17	0.004
370.38	0.004
370.58	0.004
370.79	0.004
371.00	0.004
371.21	0.005
371.41	0.004
371.62	0.004
371.83	0.004
372.04	0.005
372.24	0.005
372.45	0.004
372.66	0.004
372.87	0.004
373.07	0.004
373.28	0.005
373.49	0.005
373.70	0.004
373.90	0.005
374.11	0.004
374.32	0.004
374.53	0.004
374.73	0.004
374.94	0.004
375.15	0.004
375.36	0.004
375.56	0.004
375.77	0.004
375.98	0.004
376.19	0.004
376.39	0.004
376.60	0.004
376.81	0.004
377.02	0.004
377.22	0.004
377.43	0.004
377.64	0.004
377.84	0.004
378.05	0.004
378.26	0.004
378.47	0.004
378.67	0.005
378.88	0.005
379.09	0.005
379.30	0.004
379.50	0.004
379.71	0.004
379.92	0.004
380.12	0.004
380.33	0.004
380.54	0.004
380.75	0.004
380.95	0.004
381.16	0.004
381.37	0.004
381.57	0.004
381.78	0.004
381.99	0.004
382.20	0.004
382.40	0.004
382.61	0.005
382.82	0.004
383.02	0.004
383.23	0.005
383.44	0.005
383.64	0.005
383.85	0.005
384.06	0.005
384.27	0.004
384.47	0.004
384.68	0.004
384.89	0.004
385.09	0.004
385.30	0.004
385.51	0.004
385.71	0.004
385.92	0.004
386.13	0.004
386.33	0.004
386.54	0.004
386.75	0.004
386.95	0.004
387.16	0.004
387.37	0.004
387.58	0.004
387.78	0.004
387.99	0.004
388.20	0.005
388.40	0.005
388.61	0.005
388.82	0.005
389.02	0.004
389.23	0.004
389.44	0.004
389.64	0.005
389.85	0.005
390.06	0.004
390.26	0.004
390.47	0.004
390.68	0.004
390.88	0.004
391.09	0.004
391.30	0.004
391.50	0.004
391.71	0.004
391.92	0.004
392.12	0.004
392.33	0.004
392.53	0.005
392.74	0.005
392.95	0.005
393.15	0.005
393.36	0.005
393.57	0.005
393.77	0.005
393.98	0.005
394.19	0.005
394.39	0.005
394.60	0.005
394.81	0.005
395.01	0.005
395.22	0.005
395.43	0.005
395.63	0.005
395.84	0.005
396.04	0.005
396.25	0.005
396.46	0.004
396.66	0.004
396.87	0.004
397.08	0.004
397.28	0.004
397.49	0.005
397.69	0.005
397.90	0.004
398.11	0.004
398.31	0.004
398.52	0.004
398.73	0.005
398.93	0.005
399.14	0.005
399.34	0.005
399.55	0.005
399.76	0.005
399.96	0.005
400.17	0.005
400.37	0.005
400.58	0.005
400.79	0.005
400.99	0.005
401.20	0.005
401.41	0.005
401.61	0.005
401.82	0.005
402.02	0.005
402.23	0.005
402.44	0.005
402.64	0.005
402.85	0.005
403.05	0.005
403.26	0.005
403.47	0.005
403.67	0.005
403.88	0.005
404.08	0.005
404.29	0.005
404.50	0.005
404.70	0.005
404.91	0.005
405.11	0.005
405.32	0.005
405.52	0.005
405.73	0.005
405.94	0.005
406.14	0.005
406.35	0.005
406.55	0.005
406.76	0.005
406.97	0.005
407.17	0.005
407.38	0.005
407.58	0.004
407.79	0.004
407.99	0.005
408.20	0.005
408.41	0.005
408.61	0.005
408.82	0.005
409.02	0.005
409.23	0.005
409.43	0.005
409.64	0.005
409.84	0.005
410.05	0.005
410.26	0.005
410.46	0.005
410.67	0.005
410.87	0.005
411.08	0.005
411.28	0.005
411.49	0.005
411.69	0.005
411.90	0.005
412.11	0.005
412.31	0.005
412.52	0.005
412.72	0.005
412.93	0.005
413.13	0.005
413.34	0.005
413.54	0.005
413.75	0.005
413.95	0.005
414.16	0.005
414.37	0.005
414.57	0.005
414.78	0.005
414.98	0.005
415.19	0.005
415.39	0.005
415.60	0.005
415.80	0.004
416.01	0.004
416.21	0.005
416.42	0.004
416.62	0.004
416.83	0.004
417.03	0.004
417.24	0.004
417.44	0.004
417.65	0.004
417.86	0.004
418.06	0.004
418.27	0.004
418.47	0.004
418.68	0.004
418.88	0.004
419.09	0.004
419.29	0.004
419.50	0.004
419.70	0.004
419.91	0.004
420.11	0.004
420.32	0.004
420.52	0.004
420.73	0.004
420.93	0.004
421.14	0.004
421.34	0.004
421.55	0.004
421.75	0.004
421.96	0.004
422.16	0.004
422.37	0.004
422.57	0.004
422.78	0.004
422.98	0.004
423.19	0.004
423.39	0.004
423.60	0.004
423.80	0.004
424.01	0.005
424.21	0.005
424.42	0.005
424.62	0.005
424.83	0.005
425.03	0.005
425.23	0.005
425.44	0.005
425.64	0.005
425.85	0.005
426.05	0.005
426.26	0.005
426.46	0.005
426.67	0.005
426.87	0.004
427.08	0.004
427.28	0.004
427.49	0.004
427.69	0.004
427.90	0.004
428.10	0.004
428.31	0.004
428.51	0.004
428.71	0.004
428.92	0.004
429.12	0.004
429.33	0.004
429.53	0.004
429.74	0.004
429.94	0.004
430.15	0.004
430.35	0.004
430.56	0.004
430.76	0.005
430.96	0.005
431.17	0.005
431.37	0.005
431.58	0.005
431.78	0.005
431.99	0.005
432.19	0.005
432.40	0.005
432.60	0.005
432.80	0.005
433.01	0.005
433.21	0.005
433.42	0.005
433.62	0.005
433.83	0.005
434.03	0.005
434.23	0.005
434.44	0.004
434.64	0.005
434.85	0.004
435.05	0.005
435.26	0.004
435.46	0.004
435.66	0.004
435.87	0.004
436.07	0.004
436.28	0.004
436.48	0.004
436.69	0.004
436.89	0.004
437.09	0.004
437.30	0.004
437.50	0.004
437.71	0.004
437.91	0.004
438.11	0.005
438.32	0.005
438.52	0.005
438.73	0.005
438.93	0.005
439.13	0.005
439.34	0.005
439.54	0.005
439.75	0.004
439.95	0.004
440.15	0.004
440.36	0.004
440.56	0.004
440.77	0.004
440.97	0.004
441.17	0.004
441.38	0.004
441.58	0.004
441.79	0.004
441.99	0.004
442.19	0.004
442.40	0.004
442.60	0.004
442.81	0.004
443.01	0.004
443.21	0.004
443.42	0.004
443.62	0.004
443.82	0.004
444.03	0.004
444.23	0.004
444.44	0.005
444.64	0.004
444.84	0.005
445.05	0.005
445.25	0.005
445.45	0.005
445.66	0.005
445.86	0.005
446.06	0.005
446.27	0.005
446.47	0.005
446.68	0.005
446.88	0.005
447.08	0.005
447.29	0.005
447.49	0.005
447.69	0.005
447.90	0.005
448.10	0.005
448.30	0.005
448.51	0.005
448.71	0.005
448.91	0.005
449.12	0.005
449.32	0.005
449.52	0.005
449.73	0.005
449.93	0.005
450.14	0.005
450.34	0.005
450.54	0.005
450.75	0.005
450.95	0.005
451.15	0.005
451.36	0.005
451.56	0.005
451.76	0.005
451.97	0.005
452.17	0.005
452.37	0.005
452.58	0.005
452.78	0.005
452.98	0.005
453.19	0.004
453.39	0.004
453.59	0.004
453.79	0.004
454.00	0.004
454.20	0.004
454.40	0.004
454.61	0.004
454.81	0.004
455.01	0.004
455.22	0.004
455.42	0.004
455.62	0.004
455.83	0.004
456.03	0.005
456.23	0.005
456.44	0.005
456.64	0.005
456.84	0.005
457.04	0.005
457.25	0.005
457.45	0.005
457.65	0.005
457.86	0.005
458.06	0.005
458.26	0.005
458.47	0.005
458.67	0.004
458.87	0.004
459.07	0.004
459.28	0.004
459.48	0.004
459.68	0.004
459.89	0.004
460.09	0.004
460.29	0.004
460.49	0.004
460.70	0.004
460.90	0.005
461.10	0.005
461.31	0.005
461.51	0.005
461.71	0.005
461.91	0.005
462.12	0.005
462.32	0.005
462.52	0.005
462.72	0.005
462.93	0.004
463.13	0.004
463.33	0.004
463.53	0.004
463.74	0.004
463.94	0.004
464.14	0.004
464.35	0.004
464.55	0.004
464.75	0.004
464.95	0.004
465.16	0.004
465.36	0.004
465.56	0.004
465.76	0.004
465.97	0.004
466.17	0.004
466.37	0.004
466.57	0.004
466.78	0.004
466.98	0.005
467.18	0.005
467.38	0.005
467.59	0.005
467.79	0.005
467.99	0.005
468.19	0.005
468.39	0.005
468.60	0.005
468.80	0.005
469.00	0.005
469.20	0.005
469.41	0.005
469.61	0.004
469.81	0.004
470.01	0.004
470.22	0.004
470.42	0.004
470.62	0.004
470.82	0.004
471.02	0.004
471.23	0.004
471.43	0.004
471.63	0.004
471.83	0.004
472.04	0.004
472.24	0.004
472.44	0.004
472.64	0.004
472.84	0.004
473.05	0.004
473.25	0.003
473.45	0.003
473.65	0.003
473.85	0.003
474.06	0.003
474.26	0.003
474.46	0.003
474.66	0.004
474.86	0.004
475.07	0.004
475.27	0.004
475.47	0.004
475.67	0.004
475.87	0.004
476.08	0.004
476.28	0.004
476.48	0.004
476.68	0.004
476.88	0.004
477.09	0.004
477.29	0.004
477.49	0.004
477.69	0.004
477.89	0.004
478.09	0.004
478.30	0.004
478.50	0.004
478.70	0.004
478.90	0.004
479.10	0.004
479.31	0.004
479.51	0.004
479.71	0.004
479.91	0.004
480.11	0.004
480.31	0.004
480.52	0.004
480.72	0.004
480.92	0.004
481.12	0.004
481.32	0.004
481.52	0.004
481.72	0.003
481.93	0.004
482.13	0.004
482.33	0.003
482.53	0.003
482.73	0.003
482.93	0.003
483.14	0.003
483.34	0.003
483.54	0.003
483.74	0.003
483.94	0.003
484.14	0.003
484.34	0.004
484.55	0.004
484.75	0.004
484.95	0.004
485.15	0.004
485.35	0.004
485.55	0.004
485.75	0.004
485.96	0.004
486.16	0.004
486.36	0.004
486.56	0.004
486.76	0.004
486.96	0.004
487.16	0.005
487.36	0.005
487.57	0.005
487.77	0.005
487.97	0.005
488.17	0.005
488.37	0.005
488.57	0.005
488.77	0.005
488.97	0.005
489.18	0.005
489.38	0.005
489.58	0.005
489.78	0.005
489.98	0.005
490.18	0.005
490.38	0.005
490.58	0.005
490.78	0.005
490.98	0.005
491.19	0.005
491.39	0.005
491.59	0.005
491.79	0.005
491.99	0.005
492.19	0.005
492.39	0.004
492.59	0.004
492.79	0.005
492.99	0.004
493.20	0.004
493.40	0.004
493.60	0.004
493.80	0.004
494.00	0.004
494.20	0.004
494.40	0.004
494.60	0.004
494.80	0.004
495.00	0.004
495.20	0.004
495.40	0.005
495.61	0.005
495.81	0.005
496.01	0.005
496.21	0.005
496.41	0.005
496.61	0.005
496.81	0.005
497.01	0.005
497.21	0.005
497.41	0.005
497.61	0.006
497.81	0.006
498.01	0.006
498.21	0.006
498.41	0.006
498.61	0.006
498.82	0.006
499.02	0.006
499.22	0.005
499.42	0.005
499.62	0.005
499.82	0.005
500.02	0.005
500.22	0.005
500.42	0.005
500.62	0.005
500.82	0.005
501.02	0.005
501.22	0.005
501.42	0.005
501.62	0.005
501.82	0.005
502.02	0.005
502.22	0.005
502.42	0.005
502.62	0.005
502.82	0.005
503.02	0.005
503.22	0.005
503.42	0.005
503.63	0.005
503.83	0.005
504.03	0.005
504.23	0.006
504.43	0.006
504.63	0.006
504.83	0.006
505.03	0.006
505.23	0.006
505.43	0.006
505.63	0.006
505.83	0.006
506.03	0.006
506.23	0.006
506.43	0.006
506.63	0.006
506.83	0.006
507.03	0.006
507.23	0.006
507.43	0.006
507.63	0.006
507.83	0.006
508.03	0.005
508.23	0.005
508.43	0.005
508.63	0.005
508.83	0.006
509.03	0.006
509.23	0.006
509.43	0.005
509.63	0.005
509.83	0.005
510.03	0.005
510.23	0.005
510.43	0.005
510.63	0.005
510.83	0.005
511.03	0.005
511.23	0.005
511.43	0.006
511.63	0.006
511.83	0.006
512.03	0.006
512.22	0.006
512.42	0.006
512.62	0.006
512.82	0.006
513.02	0.006
513.22	0.006
513.42	0.006
513.62	0.006
513.82	0.006
514.02	0.006
514.22	0.006
514.42	0.006
514.62	0.006
514.82	0.006
515.02	0.006
515.22	0.006
515.42	0.006
515.62	0.006
515.82	0.006
516.02	0.006
516.22	0.006
516.42	0.006
516.62	0.006
516.82	0.006
517.01	0.006
517.21	0.006
517.41	0.006
517.61	0.006
517.81	0.006
518.01	0.006
518.21	0.006
518.41	0.006
518.61	0.006
518.81	0.006
519.01	0.007
519.21	0.006
519.41	0.006
519.61	0.006
519.81	0.006
520.00	0.006
520.20	0.006
520.40	0.006
520.60	0.006
520.80	0.006
521.00	0.006
521.20	0.006
521.40	0.006
521.60	0.006
521.80	0.006
522.00	0.006
522.20	0.006
522.39	0.006
522.59	0.006
522.79	0.006
522.99	0.006
523.19	0.006
523.39	0.006
523.59	0.006
523.79	0.006
523.99	0.006
524.19	0.006
524.38	0.006
524.58	0.006
524.78	0.006
524.98	0.006
525.18	0.006
525.38	0.006
525.58	0.006
525.78	0.006
525.98	0.006
526.18	0.006
526.37	0.006
526.57	0.006
526.77	0.005
526.97	0.006
527.17	0.006
527.37	0.006
527.57	0.006
527.77	0.006
527.96	0.006
528.16	0.006
528.36	0.006
528.56	0.006
528.76	0.006
528.96	0.006
529.16	0.006
529.36	0.006
529.55	0.006
529.75	0.006
529.95	0.006
530.15	0.006
530.35	0.006
530.55	0.006
530.75	0.006
530.94	0.006
531.14	0.006
531.34	0.006
531.54	0.006
531.74	0.006
531.94	0.006
532.13	0.006
532.33	0.006
532.53	0.006
532.73	0.006
532.93	0.006
533.13	0.006
533.33	0.006
533.52	0.006
533.72	0.006
533.92	0.006
534.12	0.006
534.32	0.006
534.52	0.006
534.71	0.006
534.91	0.006
535.11	0.006
535.31	0.006
535.51	0.006
535.71	0.006
535.90	0.006
536.10	0.006
536.30	0.006
536.50	0.006
536.70	0.006
536.89	0.006
537.09	0.006
537.29	0.006
537.49	0.006
537.69	0.006
537.89	0.006
538.08	0.006
538.28	0.006
538.48	0.006
538.68	0.006
538.88	0.006
539.07	0.006
539.27	0.006
539.47	0.006
539.67	0.006
539.87	0.006
540.06	0.006
540.26	0.006
540.46	0.007
540.66	0.007
540.86	0.007
541.05	0.007
541.25	0.007
541.45	0.007
541.65	0.007
541.84	0.007
542.04	0.007
542.24	0.007
542.44	0.006
542.64	0.006
542.83	0.006
543.03	0.006
543.23	0.006
543.43	0.006
543.62	0.006
543.82	0.006
544.02	0.006
544.22	0.006
544.42	0.006
544.61	0.006
544.81	0.006
545.01	0.006
545.21	0.006
545.40	0.006
545.60	0.006
545.80	0.006
546.00	0.006
546.19	0.006
546.39	0.007
546.59	0.007
546.79	0.007
546.98	0.007
547.18	0.007
547.38	0.007
547.58	0.007
547.77	0.007
547.97	0.007
548.17	0.007
548.37	0.007
548.56	0.007
548.76	0.007
548.96	0.007
549.16	0.007
549.35	0.007
549.55	0.007
549.75	0.007
549.95	0.007
550.14	0.007
550.34	0.007
550.54	0.007
550.73	0.007
550.93	0.007
551.13	0.007
551.33	0.006
551.52	0.006
551.72	0.006
551.92	0.006
552.12	0.006
552.31	0.006
552.51	0.006
552.71	0.006
552.90	0.006
553.10	0.006
553.30	0.006
553.50	0.006
553.69	0.006
553.89	0.006
554.09	0.006
554.28	0.007
554.48	0.007
554.68	0.007
554.87	0.007
555.07	0.007
555.27	0.007
555.47	0.007
555.66	0.007
555.86	0.007
556.06	0.007
556.25	0.007
556.45	0.007
556.65	0.007
556.84	0.007
557.04	0.007
557.24	0.007
557.43	0.008
557.63	0.007
557.83	0.007
558.02	0.007
558.22	0.007
558.42	0.007
558.61	0.007
558.81	0.006
559.01	0.006
559.21	0.006
559.40	0.006
559.60	0.006
559.80	0.006
559.99	0.006
560.19	0.006
560.39	0.006
560.58	0.006
560.78	0.006
560.97	0.006
561.17	0.006
561.37	0.006
561.56	0.006
561.76	0.006
561.96	0.006
562.15	0.006
562.35	0.007
562.55	0.007
562.74	0.007
562.94	0.007
563.14	0.007
563.33	0.007
563.53	0.007
563.73	0.007
563.92	0.007
564.12	0.007
564.31	0.007
564.51	0.007
564.71	0.007
564.90	0.007
565.10	0.007
565.30	0.007
565.49	0.007
565.69	0.007
565.89	0.007
566.08	0.007
566.28	0.007
566.47	0.007
566.67	0.006
566.87	0.006
567.06	0.006
567.26	0.006
567.46	0.006
567.65	0.006
567.85	0.005
568.04	0.005
568.24	0.005
568.44	0.005
568.63	0.005
568.83	0.004
569.02	0.005
569.22	0.005
569.42	0.005
569.61	0.005
569.81	0.005
570.00	0.004
570.20	0.005
570.40	0.005
570.59	0.005
570.79	0.005
570.98	0.005
571.18	0.005
571.38	0.005
571.57	0.005
571.77	0.004
571.96	0.005
572.16	0.005
572.35	0.005
572.55	0.005
572.75	0.005
572.94	0.005
573.14	0.006
573.33	0.006
573.53	0.006
573.73	0.006
573.92	0.006
574.12	0.006
574.31	0.006
574.51	0.006
574.70	0.005
574.90	0.005
575.09	0.004
575.29	0.003
575.49	0.003
575.68	0.002
575.88	0.002
576.07	0.001
576.27	0.001
576.46	0.000
576.66	-0.000
576.86	-0.000
577.05	-0.000
577.25	-0.000
577.44	-0.000
577.64	-0.000
577.83	-0.000
578.03	-0.000
578.22	-0.000
578.42	-0.000
578.61	-0.000
578.81	-0.000
579.00	-0.000
579.20	-0.000
579.40	-0.000
579.59	-0.000
579.79	-0.000
579.98	-0.000
580.18	-0.000
580.37	-0.000
580.57	-0.000
580.76	-0.000
580.96	-0.000
581.15	-0.000
581.35	-0.000
581.54	-0.000
581.74	-0.000
581.93	-0.000
582.13	-0.000
582.32	-0.000
582.52	-0.000
582.71	-0.000
582.91	-0.000
583.10	-0.000
583.30	-0.000
583.49	-0.000
583.69	-0.000
583.88	-0.000
584.08	-0.000
584.27	-0.000
584.47	-0.000
584.66	-0.000
584.86	-0.000
585.05	-0.000
585.25	-0.000
585.44	-0.000
585.64	-0.000
585.83	-0.000
586.03	-0.000
586.22	-0.000
586.42	0.001
586.61	0.002
586.81	0.002
587.00	0.003
587.20	0.004
587.39	0.005
587.59	0.005
587.78	0.006
587.98	0.007
588.17	0.008
588.37	0.008
588.56	0.008
588.76	0.008
588.95	0.008
589.15	0.008
589.34	0.008
589.54	0.007
589.73	0.007
589.92	0.007
590.12	0.007
590.31	0.006
590.51	0.006
590.70	0.006
590.90	0.005
591.09	0.005
591.29	0.005
591.48	0.005
591.68	0.005
591.87	0.005
592.06	0.006
592.26	0.006
592.45	0.006
592.65	0.006
592.84	0.006
593.04	0.006
593.23	0.006
593.43	0.007
593.62	0.007
593.81	0.007
594.01	0.007
594.20	0.007
594.40	0.008
594.59	0.008
594.79	0.008
594.98	0.008
595.17	0.008
595.37	0.008
595.56	0.008
595.76	0.007
595.95	0.007
596.14	0.007
596.34	0.006
596.53	0.006
596.73	0.006
596.92	0.005
597.12	0.005
597.31	0.005
597.50	0.005
597.70	0.005
597.89	0.005
598.09	0.005
598.28	0.005
598.47	0.005
598.67	0.005
598.86	0.005
599.06	0.006
599.25	0.006
599.44	0.006
599.64	0.006
599.83	0.007
600.03	0.007
600.22	0.007
600.41	0.007
600.61	0.007
600.80	0.008
601.00	0.008
601.19	0.008
601.38	0.008
601.58	0.008
601.77	0.008
601.96	0.008
602.16	0.008
602.35	0.008
602.55	0.007
602.74	0.007
602.93	0.007
603.13	0.007
603.32	0.006
603.51	0.006
603.71	0.006
603.90	0.006
604.09	0.005
604.29	0.005
604.48	0.005
604.68	0.005
604.87	0.005
605.06	0.005
605.26	0.005
605.45	0.006
605.64	0.006
605.84	0.006
606.03	0.006
606.22	0.006
606.42	0.007
606.61	0.007
606.80	0.007
607.00	0.007
607.19	0.007
607.38	0.007
607.58	0.007
607.77	0.007
607.96	0.007
608.16	0.008
608.35	0.008
608.54	0.008
608.74	0.008
608.93	0.008
609.12	0.008
609.32	0.008
609.51	0.008
609.70	0.008
609.90	0.008
610.09	0.008
610.28	0.008
610.48	0.008
610.67	0.007
610.86	0.007
611.06	0.007
611.25	0.007
611.44	0.007
611.64	0.007
611.83	0.006
612.02	0.006
612.21	0.006
612.41	0.006
612.60	0.006
612.79	0.006
612.99	0.006
613.18	0.006
613.37	0.006
613.57	0.006
613.76	0.006
613.95	0.007
614.14	0.007
614.34	0.007
614.53	0.007
614.72	0.007
614.92	0.007
615.11	0.008
615.30	0.008
615.49	0.008
615.69	0.008
615.88	0.008
616.07	0.008
616.26	0.009
616.46	0.009
616.65	0.009
616.84	0.009
617.04	0.009
617.23	0.009
617.42	0.009
617.61	0.009
617.81	0.009
618.00	0.009
618.19	0.009
618.38	0.009
618.58	0.008
618.77	0.008
618.96	0.008
619.15	0.008
619.35	0.008
619.54	0.008
619.73	0.008
619.92	0.008
620.12	0.008
620.31	0.008
620.50	0.008
620.69	0.008
620.89	0.008
621.08	0.008
621.27	0.008
621.46	0.008
621.66	0.008
621.85	0.008
622.04	0.008
622.23	0.008
622.43	0.007
622.62	0.007
622.81	0.007
623.00	0.008
623.19	0.008
623.39	0.008
623.58	0.008
623.77	0.008
623.96	0.008
624.16	0.008
624.35	0.008
624.54	0.008
624.73	0.008
624.92	0.008
625.12	0.008
625.31	0.008
625.50	0.008
625.69	0.008
625.88	0.009
626.08	0.009
626.27	0.009
626.46	0.009
626.65	0.009
626.84	0.009
627.04	0.009
627.23	0.009
627.42	0.009
627.61	0.009
627.80	0.009
628.00	0.009
628.19	0.009
628.38	0.009
628.57	0.009
628.76	0.009
628.96	0.009
629.15	0.009
629.34	0.010
629.53	0.010
629.72	0.010
629.91	0.010
630.11	0.010
630.30	0.010
630.49	0.010
630.68	0.010
630.87	0.010
631.06	0.010
631.26	0.010
631.45	0.010
631.64	0.010
631.83	0.010
632.02	0.010
632.21	0.010
632.41	0.010
632.60	0.010
632.79	0.010
632.98	0.010
633.17	0.010
633.36	0.010
633.55	0.010
633.75	0.010
633.94	0.010
634.13	0.009
634.32	0.009
634.51	0.009
634.70	0.009
634.89	0.009
635.09	0.009
635.28	0.009
635.47	0.009
635.66	0.009
635.85	0.009
636.04	0.009
636.23	0.010
636.43	0.010
636.62	0.010
636.81	0.010
637.00	0.010
637.19	0.010
637.38	0.010
637.57	0.010
637.76	0.010
637.95	0.010
638.15	0.010
638.34	0.010
638.53	0.010
638.72	0.010
638.91	0.010
639.10	0.010
639.29	0.010
639.48	0.010
639.67	0.010
639.87	0.010
640.06	0.010
640.25	0.010
640.44	0.010
640.63	0.010
640.82	0.010
641.01	0.010
641.20	0.010
641.39	0.010
641.58	0.010
641.78	0.010
641.97	0.010
642.16	0.010
642.35	0.010
642.54	0.010
642.73	0.010
642.92	0.010
643.11	0.010
643.30	0.010
643.49	0.010
643.68	0.010
643.87	0.010
644.06	0.010
644.25	0.010
644.45	0.010
644.64	0.010
644.83	0.010
645.02	0.010
645.21	0.010
645.40	0.010
645.59	0.010
645.78	0.010
645.97	0.010
646.16	0.010
646.35	0.010
646.54	0.009
646.73	0.009
646.92	0.009
647.11	0.009
647.30	0.009
647.49	0.009
647.68	0.009
647.88	0.009
648.07	0.009
648.26	0.009
648.45	0.009
648.64	0.009
648.83	0.009
649.02	0.009
649.21	0.009
649.40	0.009
649.59	0.009
649.78	0.010
649.97	0.010
650.16	0.010
650.35	0.010
650.54	0.010
650.73	0.010
650.92	0.011
651.11	0.011
651.30	0.011
651.49	0.011
651.68	0.011
651.87	0.010
652.06	0.010
652.25	0.010
652.44	0.010
652.63	0.008
652.82	0.007
653.01	0.006
653.20	0.005
653.39	0.004
653.58	0.004
653.77	0.004
653.96	0.003
654.15	0.003
654.34	0.003
654.53	0.003
654.72	0.004
654.91	0.005
655.10	0.006
655.29	0.006
655.48	0.006
655.67	0.007
655.86	0.007
656.05	0.007
656.24	0.007
656.43	0.007
656.62	0.007
656.81	0.008
657.00	0.009
657.19	0.010
657.38	0.011
657.57	0.012
657.76	0.012
657.95	0.013
658.14	0.013
658.33	0.014
658.51	0.015
658.70	0.015
658.89	0.015
659.08	0.014
659.27	0.013
659.46	0.012
659.65	0.012
659.84	0.012
660.03	0.011
660.22	0.011
660.41	0.011
660.60	0.011
660.79	0.011
660.98	0.011
661.17	0.011
661.36	0.011
661.55	0.010
661.74	0.010
661.92	0.010
662.11	0.010
662.30	0.010
662.49	0.010
662.68	0.010
662.87	0.010
663.06	0.010
663.25	0.010
663.44	0.010
663.63	0.010
663.82	0.011
664.01	0.011
664.20	0.011
664.38	0.011
664.57	0.011
664.76	0.010
664.95	0.011
665.14	0.011
665.33	0.011
665.52	0.011
665.71	0.011
665.90	0.011
666.09	0.010
666.28	0.010
666.46	0.010
666.65	0.011
666.84	0.011
667.03	0.011
667.22	0.011
667.41	0.010
667.60	0.010
667.79	0.010
667.98	0.010
668.16	0.010
668.35	0.010
668.54	0.010
668.73	0.010
668.92	0.010
669.11	0.010
669.30	0.009
669.49	0.009
669.67	0.009
669.86	0.009
670.05	0.009
670.24	0.009
670.43	0.009
670.62	0.009
670.81	0.009
671.00	0.009
671.18	0.009
671.37	0.009
671.56	0.009
671.75	0.009
671.94	0.009
672.13	0.009
672.32	0.009
672.50	0.009
672.69	0.009
672.88	0.010
673.07	0.010
673.26	0.010
673.45	0.010
673.63	0.010
673.82	0.010
674.01	0.010
674.20	0.010
674.39	0.010
674.58	0.010
674.76	0.010
674.95	0.010
675.14	0.010
675.33	0.010
675.52	0.010
675.71	0.010
675.89	0.010
676.08	0.010
676.27	0.010
676.46	0.010
676.65	0.010
676.84	0.010
677.02	0.010
677.21	0.010
677.40	0.010
677.59	0.010
677.78	0.010
677.96	0.010
678.15	0.010
678.34	0.010
678.53	0.010
678.72	0.010
678.90	0.010
679.09	0.010
679.28	0.010
679.47	0.010
679.66	0.010
679.84	0.010
680.03	0.010
680.22	0.010
680.41	0.010
680.60	0.010
680.78	0.010
680.97	0.010
681.16	0.010
681.35	0.010
681.53	0.010
681.72	0.010
681.91	0.010
682.10	0.010
682.29	0.010
682.47	0.010
682.66	0.010
682.85	0.010
683.04	0.010
683.22	0.009
683.41	0.009
683.60	0.010
683.79	0.010
683.97	0.010
684.16	0.010
684.35	0.010
684.54	0.010
684.72	0.010
684.91	0.010
685.10	0.010
685.29	0.010
685.47	0.010
685.66	0.010
685.85	0.010
686.04	0.010
686.22	0.010
686.41	0.010
686.60	0.010
686.79	0.010
686.97	0.010
687.16	0.010
687.35	0.011
687.54	0.011
687.72	0.011
687.91	0.011
688.10	0.010
688.29	0.011
688.47	0.010
688.66	0.010
688.85	0.010
689.03	0.010
689.22	0.010
689.41	0.010
689.60	0.010
689.78	0.010
689.97	0.010
690.16	0.010
690.34	0.010
690.53	0.010
690.72	0.010
690.91	0.010
691.09	0.010
691.28	0.010
691.47	0.010
691.65	0.010
691.84	0.010
692.03	0.010
692.21	0.010
692.40	0.010
692.59	0.011
692.77	0.011
692.96	0.011
693.15	0.011
693.34	0.011
693.52	0.011
693.71	0.011
693.90	0.011
694.08	0.011
694.27	0.011
694.46	0.011
694.64	0.011
694.83	0.010
695.02	0.010
695.20	0.010
695.39	0.010
695.58	0.010
695.76	0.010
695.95	0.010
696.14	0.010
696.32	0.010
696.51	0.010
696.70	0.010
696.88	0.010
697.07	0.010
697.26	0.010
697.44	0.010
697.63	0.010
697.81	0.010
698.00	0.010
698.19	0.011
698.37	0.011
698.56	0.011
698.75	0.011
698.93	0.011
699.12	0.011
699.31	0.011
699.49	0.011
699.68	0.011
699.87	0.011
700.05	0.011
700.24	0.011
700.42	0.010
700.61	0.010
700.80	0.010
700.98	0.010
701.17	0.010
701.36	0.010
701.54	0.010
701.73	0.010
701.91	0.010
702.10	0.010
702.29	0.010
702.47	0.011
702.66	0.011
702.84	0.011
703.03	0.011
703.22	0.011
703.40	0.011
703.59	0.011
703.77	0.011
703.96	0.011
704.15	0.011
704.33	0.011
704.52	0.011
704.70	0.011
704.89	0.011
705.08	0.010
705.26	0.010
705.45	0.010
705.63	0.010
705.82	0.010
706.00	0.010
706.19	0.010
706.38	0.010
706.56	0.010
706.75	0.010
706.93	0.010
707.12	0.010
707.30	0.010
707.49	0.010
707.68	0.010
707.86	0.009
708.05	0.009
708.23	0.009
708.42	0.010
708.60	0.010
708.79	0.010
708.98	0.010
709.16	0.010
709.35	0.010
709.53	0.010
709.72	0.010
709.90	0.011
710.09	0.011
710.27	0.011
710.46	0.011
710.64	0.011
710.83	0.011
711.02	0.011
711.20	0.011
711.39	0.010
711.57	0.011
711.76	0.010
711.94	0.010
712.13	0.010
712.31	0.010
712.50	0.010
712.68	0.010
712.87	0.010
713.05	0.010
713.24	0.010
713.42	0.010
713.61	0.010
713.79	0.010
713.98	0.011
714.16	0.011
714.35	0.011
714.54	0.011
714.72	0.011
714.91	0.011
715.09	0.011
715.28	0.011
715.46	0.011
715.65	0.011
715.83	0.011
716.02	0.011
716.20	0.011
716.39	0.010
716.57	0.010
716.76	0.010
716.94	0.010
717.12	0.010
717.31	0.010
717.49	0.010
717.68	0.010
717.86	0.010
718.05	0.010
718.23	0.010
718.42	0.010
718.60	0.010
718.79	0.010
718.97	0.010
719.16	0.010
719.34	0.010
719.53	0.010
719.71	0.010
719.90	0.010
720.08	0.010
720.27	0.010
720.45	0.010
720.63	0.010
720.82	0.010
721.00	0.010
721.19	0.010
721.37	0.010
721.56	0.010
721.74	0.010
721.93	0.010
722.11	0.011
722.30	0.010
722.48	0.010
722.66	0.011
722.85	0.011
723.03	0.011
723.22	0.010
723.40	0.010
723.59	0.010
723.77	0.010
723.95	0.010
724.14	0.010
724.32	0.010
724.51	0.010
724.69	0.010
724.88	0.010
725.06	0.010
725.24	0.010
725.43	0.010
725.61	0.010
725.80	0.009
725.98	0.009
726.16	0.009
726.35	0.009
726.53	0.009
726.72	0.009
726.90	0.009
727.09	0.009
727.27	0.009
727.45	0.009
727.64	0.009
727.82	0.009
728.01	0.009
728.19	0.009
728.37	0.009
728.56	0.009
728.74	0.009
728.92	0.009
729.11	0.009
729.29	0.009
729.48	0.009
729.66	0.009
729.84	0.009
730.03	0.008
730.21	0.008
730.40	0.008
730.58	0.008
730.76	0.008
730.95	0.008
731.13	0.008
731.31	0.008
731.50	0.008
731.68	0.008
731.86	0.008
732.05	0.008
732.23	0.009
732.42	0.008
732.60	0.008
732.78	0.008
732.97	0.008
733.15	0.008
733.33	0.008
733.52	0.007
733.70	0.007
733.88	0.007
734.07	0.007
734.25	0.007
734.43	0.007
734.62	0.006
734.80	0.006
734.98	0.006
735.17	0.006
735.35	0.006
735.53	0.006
735.72	0.006
735.90	0.006
736.08	0.006
736.27	0.006
736.45	0.006
736.63	0.006
736.82	0.006
737.00	0.006
737.18	0.007
737.37	0.007
737.55	0.007
737.73	0.007
737.92	0.006
738.10	0.006
738.28	0.006
738.46	0.006
738.65	0.005
738.83	0.006
739.01	0.006
739.20	0.006
739.38	0.006
739.56	0.006
739.75	0.006
739.93	0.007
740.11	0.007
740.29	0.007
740.48	0.007
740.66	0.007
740.84	0.007
741.03	0.007
741.21	0.007
741.39	0.008
741.57	0.007
741.76	0.007
741.94	0.007
742.12	0.006
742.31	0.007
742.49	0.006
742.67	0.007
742.85	0.006
743.04	0.007
743.22	0.006
743.40	0.006
743.58	0.006
743.77	0.007
743.95	0.007
744.13	0.007
744.31	0.007
744.50	0.007
744.68	0.008
744.86	0.008
745.04	0.008
745.23	0.007
745.41	0.007
745.59	0.006
745.77	0.006
745.96	0.007
746.14	0.007
746.32	0.007
746.50	0.007
746.69	0.007
746.87	0.007
747.05	0.007
747.23	0.007
747.42	0.007
747.60	0.008
747.78	0.008
747.96	0.008
748.14	0.008
748.33	0.008
748.51	0.008
748.69	0.008
748.87	0.008
749.06	0.008
749.24	0.009
749.42	0.008
749.60	0.008
749.78	0.008
749.97	0.008
750.15	0.008
750.33	0.008
750.51	0.008
750.69	0.008
750.88	0.007
751.06	0.007
751.24	0.007
751.42	0.007
751.60	0.007
751.79	0.007
751.97	0.007
752.15	0.007
752.33	0.006
752.51	0.006
752.69	0.006
752.88	0.007
753.06	0.008
753.24	0.008
753.42	0.008
753.60	0.008
753.78	0.008
753.97	0.008
754.15	0.008
754.33	0.008
754.51	0.008
754.69	0.008
754.87	0.007
755.06	0.006
755.24	0.006
755.42	0.006
755.60	0.006
755.78	0.006
755.96	0.006
756.15	0.006
756.33	0.006
756.51	0.006
756.69	0.006
756.87	0.006
757.05	0.006
757.23	0.006
757.42	0.006
757.60	0.006
757.78	0.006
757.96	0.006
758.14	0.007
758.32	0.007
758.50	0.007
758.69	0.007
758.87	0.008
759.05	0.008
759.23	0.008
759.41	0.009
759.59	0.009
759.77	0.009
759.95	0.009
760.13	0.009
760.32	0.009
760.50	0.009
760.68	0.009
760.86	0.009
761.04	0.008
761.22	0.008
761.40	0.008
761.58	0.008
761.76	0.008
761.95	0.007
762.13	0.007
762.31	0.008
762.49	0.007
762.67	0.008
762.85	0.008
763.03	0.008
763.21	0.008
763.39	0.008
763.57	0.009
763.75	0.009
763.94	0.009
764.12	0.008
764.30	0.009
764.48	0.008
764.66	0.008
764.84	0.008
765.02	0.008
765.20	0.008
765.38	0.008
765.56	0.007
765.74	0.007
765.92	0.008
766.10	0.008
766.28	0.008
766.46	0.008
766.65	0.009
766.83	0.009
767.01	0.009
767.19	0.009
767.37	0.009
767.55	0.010
767.73	0.010
767.91	0.010
768.09	0.010
768.27	0.010
768.45	0.010
768.63	0.009
768.81	0.009
768.99	0.009
769.17	0.009
769.35	0.009
769.53	0.009
769.71	0.009
769.89	0.009
770.07	0.010
770.25	0.010
770.43	0.010
770.61	0.010
770.79	0.011
770.97	0.010
771.15	0.010
771.33	0.010
771.51	0.010
771.69	0.010
771.87	0.010
772.05	0.010
772.24	0.010
772.42	0.009
772.60	0.010
772.78	0.010
772.96	0.011
773.14	0.011
773.32	0.011
773.49	0.011
773.67	0.011
773.85	0.011
774.03	0.011
774.21	0.011
774.39	0.011
774.57	0.010
774.75	0.010
774.93	0.010
775.11	0.010
775.29	0.010
775.47	0.010
775.65	0.010
775.83	0.010
776.01	0.009
776.19	0.009
776.37	0.010
776.55	0.010
776.73	0.009
776.91	0.009
777.09	0.009
777.27	0.009
777.45	0.009
777.63	0.009
777.81	0.010
777.99	0.010
778.17	0.010
778.35	0.011
778.53	0.011
778.71	0.011
778.89	0.011
779.07	0.011
779.24	0.010
779.42	0.011
779.60	0.011
779.78	0.011
779.96	0.011
780.14	0.010
780.32	0.010
780.50	0.010
780.68	0.010
780.86	0.009
781.04	0.009
781.22	0.009
781.40	0.009
781.58	0.009
781.75	0.009
781.93	0.009
782.11	0.010
782.29	0.011
782.47	0.011
782.65	0.012
782.83	0.011
783.01	0.012
783.19	0.012
783.37	0.012
783.55	0.012
783.72	0.012
783.90	0.012
784.08	0.013
784.26	0.013
784.44	0.012
784.62	0.011
784.80	0.012
784.98	0.011
785.16	0.011
785.33	0.011
785.51	0.011
785.69	0.010
785.87	0.010
786.05	0.010
786.23	0.009
786.41	0.009
786.59	0.010
786.77	0.010
786.94	0.010
787.12	0.010
787.30	0.010
787.48	0.010
787.66	0.010
787.84	0.010
788.02	0.010
788.19	0.010
788.37	0.010
788.55	0.010
788.73	0.010
788.91	0.010
789.09	0.010
789.27	0.010
789.44	0.011
789.62	0.011
789.80	0.011
789.98	0.010
790.16	0.010
790.34	0.010
790.51	0.010
790.69	0.010
790.87	0.010
791.05	0.010
791.23	0.010
791.41	0.009
791.58	0.009
791.76	0.010
791.94	0.010
792.12	0.010
792.30	0.010
792.48	0.010
792.65	0.010
792.83	0.010
793.01	0.011
793.19	0.011
793.37	0.011
793.54	0.011
793.72	0.011
793.90	0.011
794.08	0.012
794.26	0.012
794.43	0.012
794.61	0.012
794.79	0.012
794.97	0.012
795.15	0.012
795.32	0.012
795.50	0.012
795.68	0.013
795.86	0.013
796.04	0.013
796.21	0.013
796.39	0.013
796.57	0.013
796.75	0.013
796.92	0.013
797.10	0.012
797.28	0.012
797.46	0.012
797.64	0.011
797.81	0.011
797.99	0.011
798.17	0.011
798.35	0.012
798.52	0.012
798.70	0.012
798.88	0.011
799.06	0.012
799.23	0.012
799.41	0.012
799.59	0.012
799.77	0.012
799.94	0.012
800.12	0.013
800.30	0.012
800.48	0.012
800.65	0.012
800.83	0.012
801.01	0.012
801.19	0.012
801.36	0.012
801.54	0.012
801.72	0.011
801.90	0.011
802.07	0.011
802.25	0.011
802.43	0.011
802.60	0.012
802.78	0.012
802.96	0.012
803.14	0.012
803.31	0.011
803.49	0.011
803.67	0.011
803.84	0.012
804.02	0.012
804.20	0.012
804.38	0.012
804.55	0.011
804.73	0.011
804.91	0.011
805.08	0.012
805.26	0.012
805.44	0.012
805.61	0.013
805.79	0.013
805.97	0.013
806.15	0.012
806.32	0.013
806.50	0.012
806.68	0.012
806.85	0.012
807.03	0.012
807.21	0.011
807.38	0.012
807.56	0.012
807.74	0.012
807.91	0.012
808.09	0.012
808.27	0.011
808.44	0.012
808.62	0.011
808.80	0.012
808.97	0.012
809.15	0.013
809.33	0.012
809.50	0.012
809.68	0.012
809.86	0.012
810.03	0.012
810.21	0.012
810.39	0.012
810.56	0.012
810.74	0.012
810.91	0.012
811.09	0.011
811.27	0.011
811.44	0.011
811.62	0.010
811.80	0.011
811.97	0.011
812.15	0.011
812.33	0.011
812.50	0.011
812.68	0.011
812.85	0.011
813.03	0.011
813.21	0.012
813.38	0.011
813.56	0.012
813.74	0.012
813.91	0.012
814.09	0.011
814.26	0.011
814.44	0.011
814.62	0.011
814.79	0.011
814.97	0.011
815.14	0.011
815.32	0.011
815.50	0.011
815.67	0.011
815.85	0.011
816.02	0.011
816.20	0.011
816.38	0.011
816.55	0.011
816.73	0.012
816.90	0.011
817.08	0.011
817.26	0.011
817.43	0.011
817.61	0.011
817.78	0.012
817.96	0.012
818.13	0.012
818.31	0.012
818.49	0.012
818.66	0.012
818.84	0.012
819.01	0.012
819.19	0.012
819.36	0.012
819.54	0.012
819.71	0.012
819.89	0.012
820.07	0.012
820.24	0.012
820.42	0.012
820.59	0.012
820.77	0.012
820.94	0.012
821.12	0.012
821.29	0.012
821.47	0.012
821.64	0.012
821.82	0.013
822.00	0.013
822.17	0.013
822.35	0.012
822.52	0.012
822.70	0.013
822.87	0.012
823.05	0.011
823.22	0.012
823.40	0.011
823.57	0.011
823.75	0.010
823.92	0.010
824.10	0.010
824.27	0.010
824.45	0.010
824.62	0.009
824.80	0.009
824.97	0.010
825.15	0.010
825.32	0.011
825.50	0.010
825.67	0.011
825.85	0.011
826.02	0.011
826.20	0.012
826.37	0.013
826.55	0.013
826.72	0.014
826.90	0.013
827.07	0.013
827.25	0.013
827.42	0.013
827.60	0.013
827.77	0.013
827.95	0.013
828.12	0.013
828.30	0.013
828.47	0.013
828.65	0.013
828.82	0.014
829.00	0.015
829.17	0.015
829.34	0.015
829.52	0.016
829.69	0.015
829.87	0.015
830.04	0.014
830.22	0.014
830.39	0.013
830.57	0.014
830.74	0.013
830.92	0.012
831.09	0.012
831.26	0.011
831.44	0.012
831.61	0.013
831.79	0.013
831.96	0.013
832.14	0.012
832.31	0.013
832.49	0.012
832.66	0.011
832.83	0.013
833.01	0.012
833.18	0.012
833.36	0.010
833.53	0.010
833.70	0.009
833.88	0.009
834.05	0.009
834.23	0.008
834.40	0.008
834.58	0.008
834.75	0.006
834.92	0.008
835.10	0.006
835.27	0.006
835.45	0.006
835.62	0.007
835.79	0.007
835.97	0.007
836.14	0.007
836.32	0.007
836.49	0.007
836.66	0.005
836.84	0.004
837.01	0.005
837.18	0.005
837.36	0.005
837.53	0.005
837.71	0.004
837.88	0.004
838.05	0.002
838.23	0.003
838.40	0.004
838.58	0.005
838.75	0.005
838.92	0.006
839.10	0.007
839.27	0.007
839.44	0.007
839.62	0.006
839.79	0.007
839.96	0.011
840.14	0.011
840.31	0.011
840.48	0.010
840.66	0.012
840.83	0.011
841.01	0.009
841.18	0.010
841.35	0.008
841.53	0.009
841.70	0.010
841.87	0.007
842.05	0.008
842.22	0.007
842.39	0.008
842.57	0.005
842.74	0.006
842.91	0.009
843.09	0.009
843.26	0.011
843.43	0.013
843.60	0.012
843.78	0.014
843.95	0.013
844.12	0.013
844.30	0.014
844.47	0.016
844.64	0.017
844.82	0.015
844.99	0.014
845.16	0.013
845.34	0.012
845.51	0.014
845.68	0.014
845.85	0.014
846.03	0.014
846.20	0.013
846.37	0.013
846.55	0.014
846.72	0.015
846.89	0.015
847.06	0.016
847.24	0.016
847.41	0.014
847.58	0.014
847.76	0.015
847.93	0.016
848.10	0.013
848.27	0.012
848.45	0.013
848.62	0.012
848.79	0.010
848.97	0.011
849.14	0.010
849.31	0.009
849.48	0.006
849.66	0.004
849.83	0.004
850.00	0.006
850.17	0.003
850.35	-0.001
850.52	-0.002
850.69	-0.000
850.86	-0.001
851.04	0.001
851.21	0.002
851.38	0.003
851.55	0.000
851.72	0.001
851.90	0.003
852.07	0.004
852.24	0.006
852.41	0.008
852.59	0.008
852.76	0.009
852.93	0.009
853.10	0.011
853.28	0.013
853.45	0.015
853.62	0.014
853.79	0.013
853.96	0.014
854.14	0.015
854.31	0.017
854.48	0.016
854.65	0.015
854.82	0.017
855.00	0.015
855.17	0.014
855.34	0.016
855.51	0.018
855.68	0.016
855.86	0.017
856.03	0.015
856.20	0.013
856.37	0.011
856.54	0.009
856.72	0.007
856.89	0.005
857.06	0.005
857.23	0.003
857.40	0.002
857.57	0.002
857.75	0.004
857.92	0.007
858.09	0.009
858.26	0.008
858.43	0.009
858.60	0.009
858.78	0.011
858.95	0.010
859.12	0.012
859.29	0.012
859.46	0.014
859.63	0.013
859.81	0.012
859.98	0.011
860.15	0.013
860.32	0.016
860.49	0.014
860.66	0.013
860.83	0.013
861.01	0.008
861.18	0.008
861.35	0.008
861.52	0.007
861.69	0.003
861.86	0.004
862.03	0.003
862.21	0.003
862.38	0.004
862.55	0.006
862.72	0.008
862.89	0.012
863.06	0.014
863.23	0.018
863.40	0.018
863.58	0.018
863.75	0.019
863.92	0.017
864.09	0.017
864.26	0.017
864.43	0.016
864.60	0.016
864.77	0.016
864.94	0.015
865.11	0.012
865.29	0.012
865.46	0.016
865.63	0.013
865.80	0.016
865.97	0.016
866.14	0.017
866.31	0.017
866.48	0.014
866.65	0.013
866.82	0.013
866.99	0.013
867.16	0.013
867.34	0.010
867.51	0.012
867.68	0.011
867.85	0.008
868.02	0.007
868.19	0.009
868.36	0.011
868.53	0.010
868.70	0.008
868.87	0.004
869.04	0.004
869.21	0.009
869.38	0.009
869.55	0.009
869.72	0.009
869.89	0.011
870.06	0.010
870.24	0.013
870.41	0.012
870.58	0.013
870.75	0.017
870.92	0.017
871.09	0.014
871.26	0.015
871.43	0.020
871.60	0.025
871.77	0.026
871.94	0.028
872.11	0.025
872.28	0.024
872.45	0.023
872.62	0.022
872.79	0.019
872.96	0.018
873.13	0.013
873.30	0.009
873.47	0.007
873.64	0.003
873.81	0.003
873.98	0.008
874.15	0.016
874.32	0.017
874.49	0.022
874.66	0.026
874.83	0.027
875.00	0.028
875.17	0.025
875.34	0.021
875.51	0.023
875.68	0.026
875.85	0.017
876.02	0.015
876.19	0.018
876.36	0.013
876.53	0.016
876.70	0.023
876.87	0.025
877.04	0.025
877.21	0.030
877.38	0.026
877.55	0.026
877.72	0.029
877.89	0.029
878.06	0.025
878.23	0.026
878.39	0.023
878.56	0.022
878.73	0.026
878.90	0.029
879.07	0.028
879.24	0.032
879.41	0.029
879.58	0.028
879.75	0.023
879.92	0.019
880.09	0.019
880.26	0.020
880.43	0.013
880.60	0.014
880.77	0.018
880.94	0.019
881.11	0.020
881.27	0.020
881.44	0.019
881.61	0.020
881.78	0.017
881.95	0.012
882.12	0.008
882.29	0.011
882.46	0.004
882.63	0.003
882.80	0.002
882.97	0.003
883.14	0.003
883.30	-0.002
883.47	0.004
883.64	0.005
883.81	0.012
883.98	0.010
884.15	0.008
884.32	0.013
884.49	0.015
884.66	0.007
884.82	0.007
884.99	-0.001
885.16	0.003
885.33	-0.001
885.50	0.007
885.67	0.008
885.84	0.016
886.01	0.012
886.17	0.005
886.34	0.004
886.51	0.023
886.68	0.017
886.85	0.033
887.02	0.039
887.19	0.034
887.36	0.027
887.52	0.025
887.69	0.027
887.86	0.034
888.03	0.035
888.20	0.039
888.37	0.021
888.54	0.021
888.70	0.006
888.87	-0.003
889.04	-0.001
889.21	-0.001
889.38	0.007
889.55	0.002
889.71	-0.014
889.88	-0.054
890.05	-0.053
890.22	0.090
890.39	0.009
>>>>>End Processed Spectral Data<<<<<
