SpectraSuite Data File
++++++++++++++++++++++++++++++++++++
Date: Mon Jun 15 08:13:23 PDT 2015
User: introlabs
Dark Spectrum Present: Yes
Reference Spectrum Present: Yes
Number of Sampled Component Spectra: 1
Spectrometers: USB4H08886
Integration Time (usec): 44366 (USB4H08886)
Spectra Averaged: 20 (USB4H08886)
Boxcar Smoothing: 5 (USB4H08886)
Correct for Electrical Dark: Yes (USB4H08886)
Strobe/Lamp Enabled: No (USB4H08886)
Correct for Detector Non-linearity: Yes (USB4H08886)
Correct for Stray Light: Yes (USB4H08886)
Number of Pixels in Processed Spectrum: 3648
>>>>>Begin Processed Spectral Data<<<<<
178.14	0.365
178.36	0.365
178.57	0.365
178.79	-0.000
179.01	-1.202
179.22	0.129
179.44	-0.238
179.65	-0.000
179.87	-0.000
180.08	0.760
180.30	0.751
180.52	1.155
180.73	0.763
180.95	0.186
181.16	0.122
181.38	0.088
181.59	0.069
181.81	0.045
182.03	0.044
182.24	0.049
182.46	0.045
182.67	0.040
182.89	0.038
183.10	0.041
183.32	0.038
183.54	0.027
183.75	0.022
183.97	0.032
184.18	0.027
184.40	0.024
184.61	0.028
184.83	0.035
185.04	0.018
185.26	0.016
185.48	0.004
185.69	0.011
185.91	0.015
186.12	0.018
186.34	0.019
186.55	0.023
186.77	0.023
186.98	0.019
187.20	0.006
187.42	0.020
187.63	0.021
187.85	0.024
188.06	0.023
188.28	0.026
188.49	0.025
188.71	0.011
188.92	0.008
189.14	0.007
189.36	0.005
189.57	0.011
189.79	0.006
190.00	0.007
190.22	0.006
190.43	0.004
190.65	-0.010
190.86	-0.004
191.08	-0.002
191.29	0.005
191.51	0.005
191.72	-0.000
191.94	-0.002
192.16	-0.002
192.37	-0.001
192.59	0.000
192.80	-0.005
193.02	0.008
193.23	0.013
193.45	0.010
193.66	0.007
193.88	0.001
194.09	0.002
194.31	0.001
194.52	-0.005
194.74	-0.011
194.95	-0.010
195.17	-0.005
195.38	-0.013
195.60	-0.027
195.81	-0.020
196.03	-0.023
196.25	-0.011
196.46	-0.006
196.68	-0.004
196.89	0.004
197.11	0.011
197.32	0.008
197.54	0.007
197.75	0.021
197.97	0.027
198.18	0.023
198.40	0.027
198.61	0.016
198.83	0.007
199.04	0.011
199.26	0.002
199.47	-0.005
199.69	0.002
199.90	0.010
200.12	0.003
200.33	0.004
200.55	0.009
200.76	0.007
200.98	0.009
201.19	0.008
201.41	-0.000
201.62	0.007
201.84	0.015
202.05	0.014
202.27	0.002
202.48	0.002
202.70	0.005
202.91	0.006
203.13	-0.001
203.34	-0.010
203.56	-0.009
203.77	0.001
203.99	-0.011
204.20	-0.019
204.42	-0.018
204.63	-0.012
204.85	-0.017
205.06	-0.026
205.28	-0.030
205.49	-0.021
205.71	-0.008
205.92	-0.004
206.14	-0.011
206.35	0.004
206.56	0.012
206.78	0.004
206.99	0.004
207.21	0.009
207.42	0.016
207.64	0.015
207.85	0.012
208.07	0.010
208.28	0.013
208.50	0.020
208.71	0.023
208.93	0.022
209.14	0.032
209.36	0.031
209.57	0.032
209.79	0.030
210.00	0.038
210.22	0.039
210.43	0.042
210.64	0.039
210.86	0.032
211.07	0.022
211.29	0.018
211.50	0.008
211.72	0.001
211.93	-0.002
212.15	-0.001
212.36	-0.011
212.58	-0.009
212.79	-0.013
213.01	-0.016
213.22	-0.016
213.43	-0.019
213.65	-0.013
213.86	-0.010
214.08	0.005
214.29	0.007
214.51	0.006
214.72	0.010
214.94	0.009
215.15	0.016
215.36	0.018
215.58	0.013
215.79	0.012
216.01	0.013
216.22	0.017
216.44	0.007
216.65	0.003
216.87	0.008
217.08	0.007
217.29	0.007
217.51	0.007
217.72	0.002
217.94	0.013
218.15	0.016
218.37	0.011
218.58	0.005
218.80	0.010
219.01	0.011
219.22	0.007
219.44	0.010
219.65	0.008
219.87	0.006
220.08	0.010
220.30	-0.001
220.51	-0.003
220.72	-0.004
220.94	-0.007
221.15	-0.010
221.37	-0.013
221.58	-0.012
221.79	-0.009
222.01	-0.013
222.22	-0.020
222.44	-0.020
222.65	-0.017
222.87	-0.017
223.08	-0.019
223.29	-0.015
223.51	-0.016
223.72	-0.014
223.94	-0.016
224.15	-0.022
224.36	-0.020
224.58	-0.022
224.79	-0.022
225.01	-0.020
225.22	-0.018
225.44	-0.018
225.65	-0.013
225.86	-0.010
226.08	-0.009
226.29	-0.008
226.51	-0.003
226.72	-0.002
226.93	0.005
227.15	-0.001
227.36	-0.002
227.58	-0.003
227.79	0.001
228.00	-0.001
228.22	-0.007
228.43	-0.008
228.65	-0.010
228.86	-0.011
229.07	-0.010
229.29	-0.009
229.50	-0.006
229.72	-0.008
229.93	-0.006
230.14	-0.009
230.36	-0.011
230.57	-0.007
230.78	-0.011
231.00	-0.014
231.21	-0.019
231.43	-0.019
231.64	-0.020
231.85	-0.018
232.07	-0.018
232.28	-0.017
232.50	-0.019
232.71	-0.019
232.92	-0.021
233.14	-0.020
233.35	-0.017
233.56	-0.016
233.78	-0.017
233.99	-0.019
234.21	-0.019
234.42	-0.020
234.63	-0.020
234.85	-0.020
235.06	-0.020
235.27	-0.020
235.49	-0.019
235.70	-0.020
235.91	-0.021
236.13	-0.021
236.34	-0.021
236.56	-0.023
236.77	-0.023
236.98	-0.022
237.20	-0.023
237.41	-0.023
237.62	-0.023
237.84	-0.023
238.05	-0.022
238.26	-0.022
238.48	-0.021
238.69	-0.020
238.91	-0.019
239.12	-0.019
239.33	-0.019
239.55	-0.018
239.76	-0.017
239.97	-0.016
240.19	-0.016
240.40	-0.016
240.61	-0.015
240.83	-0.015
241.04	-0.015
241.25	-0.014
241.47	-0.013
241.68	-0.012
241.89	-0.011
242.11	-0.011
242.32	-0.010
242.53	-0.010
242.75	-0.010
242.96	-0.009
243.17	-0.007
243.39	-0.007
243.60	-0.006
243.81	-0.006
244.03	-0.006
244.24	-0.006
244.45	-0.005
244.67	-0.005
244.88	-0.004
245.09	-0.004
245.31	-0.004
245.52	-0.005
245.73	-0.005
245.95	-0.004
246.16	-0.004
246.37	-0.004
246.59	-0.004
246.80	-0.004
247.01	-0.003
247.23	-0.003
247.44	-0.004
247.65	-0.003
247.87	-0.003
248.08	-0.003
248.29	-0.003
248.51	-0.003
248.72	-0.003
248.93	-0.003
249.15	-0.003
249.36	-0.003
249.57	-0.003
249.78	-0.003
250.00	-0.003
250.21	-0.002
250.42	-0.002
250.64	-0.002
250.85	-0.001
251.06	-0.001
251.28	-0.001
251.49	-0.001
251.70	-0.001
251.92	-0.000
252.13	0.000
252.34	0.000
252.55	0.000
252.77	0.000
252.98	0.001
253.19	0.001
253.41	0.001
253.62	0.001
253.83	0.001
254.05	0.002
254.26	0.001
254.47	0.001
254.68	0.001
254.90	0.001
255.11	0.002
255.32	0.002
255.54	0.001
255.75	0.002
255.96	0.002
256.17	0.002
256.39	0.002
256.60	0.002
256.81	0.003
257.03	0.003
257.24	0.003
257.45	0.003
257.66	0.002
257.88	0.002
258.09	0.002
258.30	0.002
258.51	0.002
258.73	0.002
258.94	0.002
259.15	0.001
259.37	0.001
259.58	0.001
259.79	0.001
260.00	0.001
260.22	0.001
260.43	0.001
260.64	0.001
260.85	0.001
261.07	0.001
261.28	0.001
261.49	0.001
261.71	0.001
261.92	0.002
262.13	0.002
262.34	0.002
262.56	0.001
262.77	0.002
262.98	0.002
263.19	0.001
263.41	0.001
263.62	0.001
263.83	0.001
264.04	0.000
264.26	0.000
264.47	-0.000
264.68	-0.000
264.89	-0.000
265.11	-0.001
265.32	-0.001
265.53	-0.000
265.74	-0.000
265.96	-0.001
266.17	-0.000
266.38	-0.000
266.59	-0.000
266.81	-0.000
267.02	-0.000
267.23	-0.001
267.44	-0.001
267.65	-0.002
267.87	-0.002
268.08	-0.002
268.29	-0.002
268.50	-0.002
268.72	-0.002
268.93	-0.002
269.14	-0.002
269.35	-0.003
269.57	-0.003
269.78	-0.003
269.99	-0.003
270.20	-0.002
270.41	-0.002
270.63	-0.003
270.84	-0.003
271.05	-0.003
271.26	-0.003
271.48	-0.004
271.69	-0.004
271.90	-0.004
272.11	-0.004
272.32	-0.005
272.54	-0.005
272.75	-0.005
272.96	-0.005
273.17	-0.005
273.39	-0.005
273.60	-0.005
273.81	-0.005
274.02	-0.005
274.23	-0.005
274.45	-0.005
274.66	-0.005
274.87	-0.005
275.08	-0.005
275.29	-0.005
275.51	-0.005
275.72	-0.006
275.93	-0.006
276.14	-0.005
276.35	-0.005
276.57	-0.005
276.78	-0.005
276.99	-0.005
277.20	-0.005
277.41	-0.005
277.63	-0.005
277.84	-0.005
278.05	-0.005
278.26	-0.005
278.47	-0.005
278.69	-0.005
278.90	-0.005
279.11	-0.005
279.32	-0.004
279.53	-0.004
279.74	-0.004
279.96	-0.004
280.17	-0.004
280.38	-0.003
280.59	-0.003
280.80	-0.003
281.02	-0.003
281.23	-0.003
281.44	-0.003
281.65	-0.003
281.86	-0.003
282.07	-0.003
282.29	-0.003
282.50	-0.003
282.71	-0.003
282.92	-0.002
283.13	-0.002
283.35	-0.002
283.56	-0.002
283.77	-0.002
283.98	-0.001
284.19	-0.001
284.40	-0.001
284.62	-0.001
284.83	-0.001
285.04	-0.000
285.25	-0.000
285.46	0.000
285.67	0.001
285.88	0.001
286.10	0.001
286.31	0.001
286.52	0.002
286.73	0.002
286.94	0.002
287.15	0.003
287.37	0.003
287.58	0.003
287.79	0.004
288.00	0.004
288.21	0.004
288.42	0.005
288.63	0.005
288.85	0.005
289.06	0.006
289.27	0.006
289.48	0.006
289.69	0.006
289.90	0.007
290.11	0.007
290.33	0.007
290.54	0.007
290.75	0.008
290.96	0.008
291.17	0.008
291.38	0.008
291.59	0.009
291.81	0.009
292.02	0.009
292.23	0.009
292.44	0.009
292.65	0.009
292.86	0.009
293.07	0.009
293.28	0.010
293.50	0.010
293.71	0.010
293.92	0.010
294.13	0.010
294.34	0.011
294.55	0.011
294.76	0.011
294.97	0.011
295.19	0.011
295.40	0.011
295.61	0.010
295.82	0.011
296.03	0.010
296.24	0.011
296.45	0.010
296.66	0.010
296.87	0.010
297.09	0.010
297.30	0.010
297.51	0.010
297.72	0.010
297.93	0.010
298.14	0.010
298.35	0.011
298.56	0.010
298.77	0.011
298.99	0.011
299.20	0.011
299.41	0.011
299.62	0.011
299.83	0.011
300.04	0.011
300.25	0.011
300.46	0.011
300.67	0.011
300.88	0.011
301.10	0.011
301.31	0.011
301.52	0.011
301.73	0.011
301.94	0.011
302.15	0.011
302.36	0.011
302.57	0.011
302.78	0.011
302.99	0.011
303.20	0.011
303.41	0.011
303.63	0.011
303.84	0.011
304.05	0.011
304.26	0.011
304.47	0.011
304.68	0.011
304.89	0.011
305.10	0.011
305.31	0.011
305.52	0.011
305.73	0.011
305.94	0.011
306.15	0.011
306.37	0.011
306.58	0.012
306.79	0.012
307.00	0.012
307.21	0.012
307.42	0.012
307.63	0.012
307.84	0.012
308.05	0.012
308.26	0.012
308.47	0.012
308.68	0.012
308.89	0.012
309.10	0.012
309.31	0.012
309.52	0.012
309.73	0.012
309.95	0.012
310.16	0.011
310.37	0.011
310.58	0.012
310.79	0.011
311.00	0.011
311.21	0.011
311.42	0.011
311.63	0.011
311.84	0.011
312.05	0.011
312.26	0.011
312.47	0.012
312.68	0.012
312.89	0.012
313.10	0.012
313.31	0.012
313.52	0.012
313.73	0.012
313.94	0.012
314.15	0.012
314.36	0.013
314.57	0.012
314.78	0.013
314.99	0.012
315.21	0.013
315.42	0.012
315.63	0.012
315.84	0.012
316.05	0.012
316.26	0.012
316.47	0.012
316.68	0.012
316.89	0.012
317.10	0.012
317.31	0.012
317.52	0.012
317.73	0.012
317.94	0.012
318.15	0.012
318.36	0.012
318.57	0.012
318.78	0.012
318.99	0.012
319.20	0.012
319.41	0.012
319.62	0.012
319.83	0.012
320.04	0.012
320.25	0.013
320.46	0.012
320.67	0.012
320.88	0.012
321.09	0.012
321.30	0.013
321.51	0.012
321.72	0.012
321.93	0.012
322.14	0.012
322.35	0.012
322.56	0.012
322.77	0.012
322.98	0.012
323.19	0.012
323.40	0.012
323.61	0.012
323.82	0.013
324.03	0.013
324.24	0.013
324.45	0.013
324.66	0.012
324.87	0.012
325.08	0.012
325.29	0.012
325.50	0.012
325.71	0.012
325.92	0.012
326.13	0.012
326.34	0.012
326.55	0.012
326.76	0.012
326.97	0.012
327.18	0.012
327.39	0.012
327.60	0.012
327.80	0.012
328.01	0.012
328.22	0.012
328.43	0.012
328.64	0.012
328.85	0.012
329.06	0.012
329.27	0.012
329.48	0.012
329.69	0.012
329.90	0.012
330.11	0.012
330.32	0.012
330.53	0.012
330.74	0.012
330.95	0.012
331.16	0.012
331.37	0.012
331.58	0.012
331.79	0.012
332.00	0.012
332.21	0.012
332.42	0.012
332.63	0.012
332.83	0.012
333.04	0.012
333.25	0.012
333.46	0.012
333.67	0.012
333.88	0.012
334.09	0.012
334.30	0.012
334.51	0.012
334.72	0.011
334.93	0.011
335.14	0.011
335.35	0.011
335.56	0.011
335.77	0.011
335.98	0.011
336.18	0.011
336.39	0.011
336.60	0.011
336.81	0.011
337.02	0.011
337.23	0.011
337.44	0.011
337.65	0.011
337.86	0.011
338.07	0.011
338.28	0.011
338.49	0.011
338.70	0.011
338.91	0.011
339.11	0.011
339.32	0.010
339.53	0.010
339.74	0.010
339.95	0.010
340.16	0.010
340.37	0.010
340.58	0.010
340.79	0.010
341.00	0.010
341.21	0.010
341.41	0.010
341.62	0.010
341.83	0.009
342.04	0.009
342.25	0.009
342.46	0.009
342.67	0.009
342.88	0.009
343.09	0.009
343.30	0.009
343.50	0.009
343.71	0.009
343.92	0.010
344.13	0.010
344.34	0.010
344.55	0.010
344.76	0.010
344.97	0.009
345.18	0.009
345.38	0.009
345.59	0.009
345.80	0.009
346.01	0.009
346.22	0.009
346.43	0.009
346.64	0.009
346.85	0.009
347.06	0.009
347.26	0.008
347.47	0.008
347.68	0.008
347.89	0.008
348.10	0.008
348.31	0.008
348.52	0.008
348.73	0.008
348.93	0.008
349.14	0.008
349.35	0.008
349.56	0.008
349.77	0.008
349.98	0.008
350.19	0.008
350.39	0.008
350.60	0.008
350.81	0.008
351.02	0.008
351.23	0.008
351.44	0.008
351.65	0.008
351.86	0.008
352.06	0.008
352.27	0.008
352.48	0.008
352.69	0.008
352.90	0.008
353.11	0.008
353.31	0.008
353.52	0.008
353.73	0.008
353.94	0.007
354.15	0.007
354.36	0.007
354.57	0.007
354.77	0.007
354.98	0.007
355.19	0.007
355.40	0.007
355.61	0.007
355.82	0.007
356.02	0.007
356.23	0.007
356.44	0.007
356.65	0.007
356.86	0.007
357.07	0.007
357.27	0.007
357.48	0.007
357.69	0.007
357.90	0.007
358.11	0.007
358.32	0.007
358.52	0.007
358.73	0.007
358.94	0.007
359.15	0.007
359.36	0.007
359.56	0.006
359.77	0.006
359.98	0.006
360.19	0.006
360.40	0.006
360.61	0.006
360.81	0.006
361.02	0.007
361.23	0.007
361.44	0.007
361.65	0.006
361.85	0.007
362.06	0.007
362.27	0.007
362.48	0.007
362.69	0.006
362.89	0.006
363.10	0.006
363.31	0.006
363.52	0.006
363.73	0.006
363.93	0.006
364.14	0.006
364.35	0.006
364.56	0.006
364.77	0.006
364.97	0.006
365.18	0.006
365.39	0.006
365.60	0.006
365.81	0.006
366.01	0.006
366.22	0.006
366.43	0.006
366.64	0.006
366.84	0.006
367.05	0.006
367.26	0.006
367.47	0.006
367.68	0.006
367.88	0.006
368.09	0.006
368.30	0.006
368.51	0.006
368.71	0.006
368.92	0.006
369.13	0.006
369.34	0.006
369.55	0.006
369.75	0.006
369.96	0.006
370.17	0.006
370.38	0.006
370.58	0.006
370.79	0.006
371.00	0.006
371.21	0.006
371.41	0.006
371.62	0.006
371.83	0.006
372.04	0.006
372.24	0.006
372.45	0.006
372.66	0.006
372.87	0.006
373.07	0.006
373.28	0.006
373.49	0.006
373.70	0.006
373.90	0.006
374.11	0.005
374.32	0.006
374.53	0.005
374.73	0.005
374.94	0.005
375.15	0.006
375.36	0.005
375.56	0.005
375.77	0.005
375.98	0.005
376.19	0.005
376.39	0.005
376.60	0.005
376.81	0.005
377.02	0.005
377.22	0.005
377.43	0.005
377.64	0.005
377.84	0.005
378.05	0.005
378.26	0.005
378.47	0.005
378.67	0.005
378.88	0.005
379.09	0.005
379.30	0.005
379.50	0.005
379.71	0.005
379.92	0.005
380.12	0.005
380.33	0.005
380.54	0.005
380.75	0.005
380.95	0.005
381.16	0.005
381.37	0.005
381.57	0.005
381.78	0.005
381.99	0.005
382.20	0.005
382.40	0.005
382.61	0.005
382.82	0.005
383.02	0.005
383.23	0.005
383.44	0.005
383.64	0.005
383.85	0.005
384.06	0.005
384.27	0.005
384.47	0.005
384.68	0.005
384.89	0.005
385.09	0.005
385.30	0.004
385.51	0.004
385.71	0.004
385.92	0.004
386.13	0.004
386.33	0.004
386.54	0.004
386.75	0.004
386.95	0.004
387.16	0.004
387.37	0.004
387.58	0.004
387.78	0.004
387.99	0.004
388.20	0.004
388.40	0.004
388.61	0.004
388.82	0.004
389.02	0.004
389.23	0.004
389.44	0.004
389.64	0.004
389.85	0.004
390.06	0.004
390.26	0.004
390.47	0.004
390.68	0.004
390.88	0.004
391.09	0.004
391.30	0.004
391.50	0.004
391.71	0.004
391.92	0.004
392.12	0.004
392.33	0.004
392.53	0.004
392.74	0.004
392.95	0.005
393.15	0.004
393.36	0.004
393.57	0.004
393.77	0.004
393.98	0.004
394.19	0.004
394.39	0.004
394.60	0.004
394.81	0.004
395.01	0.004
395.22	0.004
395.43	0.004
395.63	0.004
395.84	0.004
396.04	0.004
396.25	0.004
396.46	0.004
396.66	0.004
396.87	0.004
397.08	0.004
397.28	0.004
397.49	0.004
397.69	0.004
397.90	0.004
398.11	0.004
398.31	0.004
398.52	0.004
398.73	0.004
398.93	0.004
399.14	0.004
399.34	0.004
399.55	0.004
399.76	0.004
399.96	0.004
400.17	0.004
400.37	0.004
400.58	0.004
400.79	0.004
400.99	0.004
401.20	0.004
401.41	0.004
401.61	0.004
401.82	0.004
402.02	0.004
402.23	0.004
402.44	0.004
402.64	0.004
402.85	0.004
403.05	0.004
403.26	0.004
403.47	0.004
403.67	0.004
403.88	0.004
404.08	0.004
404.29	0.004
404.50	0.004
404.70	0.003
404.91	0.003
405.11	0.003
405.32	0.003
405.52	0.003
405.73	0.003
405.94	0.003
406.14	0.003
406.35	0.003
406.55	0.003
406.76	0.003
406.97	0.003
407.17	0.003
407.38	0.003
407.58	0.003
407.79	0.003
407.99	0.004
408.20	0.003
408.41	0.004
408.61	0.004
408.82	0.004
409.02	0.004
409.23	0.004
409.43	0.004
409.64	0.003
409.84	0.003
410.05	0.003
410.26	0.003
410.46	0.003
410.67	0.003
410.87	0.003
411.08	0.003
411.28	0.003
411.49	0.003
411.69	0.003
411.90	0.003
412.11	0.003
412.31	0.003
412.52	0.003
412.72	0.003
412.93	0.003
413.13	0.003
413.34	0.003
413.54	0.003
413.75	0.003
413.95	0.003
414.16	0.003
414.37	0.003
414.57	0.003
414.78	0.003
414.98	0.003
415.19	0.003
415.39	0.003
415.60	0.003
415.80	0.003
416.01	0.003
416.21	0.003
416.42	0.003
416.62	0.003
416.83	0.003
417.03	0.003
417.24	0.003
417.44	0.003
417.65	0.003
417.86	0.003
418.06	0.003
418.27	0.003
418.47	0.003
418.68	0.003
418.88	0.003
419.09	0.003
419.29	0.003
419.50	0.003
419.70	0.003
419.91	0.003
420.11	0.003
420.32	0.003
420.52	0.002
420.73	0.002
420.93	0.002
421.14	0.002
421.34	0.003
421.55	0.003
421.75	0.003
421.96	0.002
422.16	0.003
422.37	0.003
422.57	0.003
422.78	0.003
422.98	0.003
423.19	0.003
423.39	0.003
423.60	0.003
423.80	0.003
424.01	0.003
424.21	0.003
424.42	0.003
424.62	0.003
424.83	0.003
425.03	0.003
425.23	0.003
425.44	0.003
425.64	0.003
425.85	0.003
426.05	0.003
426.26	0.003
426.46	0.003
426.67	0.003
426.87	0.003
427.08	0.002
427.28	0.002
427.49	0.002
427.69	0.002
427.90	0.002
428.10	0.002
428.31	0.002
428.51	0.002
428.71	0.002
428.92	0.002
429.12	0.002
429.33	0.002
429.53	0.002
429.74	0.002
429.94	0.002
430.15	0.002
430.35	0.003
430.56	0.003
430.76	0.003
430.96	0.003
431.17	0.003
431.37	0.003
431.58	0.003
431.78	0.003
431.99	0.003
432.19	0.003
432.40	0.003
432.60	0.003
432.80	0.003
433.01	0.003
433.21	0.003
433.42	0.002
433.62	0.003
433.83	0.002
434.03	0.003
434.23	0.003
434.44	0.003
434.64	0.003
434.85	0.003
435.05	0.003
435.26	0.003
435.46	0.003
435.66	0.003
435.87	0.003
436.07	0.003
436.28	0.003
436.48	0.002
436.69	0.002
436.89	0.002
437.09	0.002
437.30	0.002
437.50	0.002
437.71	0.002
437.91	0.002
438.11	0.002
438.32	0.002
438.52	0.002
438.73	0.002
438.93	0.002
439.13	0.002
439.34	0.002
439.54	0.002
439.75	0.002
439.95	0.002
440.15	0.002
440.36	0.003
440.56	0.003
440.77	0.002
440.97	0.003
441.17	0.003
441.38	0.003
441.58	0.002
441.79	0.002
441.99	0.002
442.19	0.002
442.40	0.002
442.60	0.002
442.81	0.002
443.01	0.002
443.21	0.002
443.42	0.002
443.62	0.002
443.82	0.002
444.03	0.002
444.23	0.002
444.44	0.002
444.64	0.002
444.84	0.002
445.05	0.002
445.25	0.002
445.45	0.002
445.66	0.002
445.86	0.002
446.06	0.002
446.27	0.002
446.47	0.002
446.68	0.002
446.88	0.002
447.08	0.002
447.29	0.002
447.49	0.002
447.69	0.002
447.90	0.002
448.10	0.002
448.30	0.002
448.51	0.002
448.71	0.002
448.91	0.002
449.12	0.002
449.32	0.002
449.52	0.002
449.73	0.002
449.93	0.002
450.14	0.002
450.34	0.002
450.54	0.002
450.75	0.002
450.95	0.002
451.15	0.002
451.36	0.002
451.56	0.002
451.76	0.002
451.97	0.002
452.17	0.002
452.37	0.002
452.58	0.002
452.78	0.002
452.98	0.002
453.19	0.002
453.39	0.002
453.59	0.002
453.79	0.002
454.00	0.002
454.20	0.002
454.40	0.002
454.61	0.002
454.81	0.002
455.01	0.002
455.22	0.002
455.42	0.002
455.62	0.002
455.83	0.002
456.03	0.002
456.23	0.002
456.44	0.002
456.64	0.002
456.84	0.002
457.04	0.002
457.25	0.002
457.45	0.002
457.65	0.002
457.86	0.002
458.06	0.002
458.26	0.002
458.47	0.002
458.67	0.002
458.87	0.002
459.07	0.002
459.28	0.002
459.48	0.002
459.68	0.002
459.89	0.002
460.09	0.002
460.29	0.002
460.49	0.002
460.70	0.002
460.90	0.002
461.10	0.002
461.31	0.002
461.51	0.002
461.71	0.002
461.91	0.002
462.12	0.002
462.32	0.002
462.52	0.002
462.72	0.002
462.93	0.002
463.13	0.002
463.33	0.002
463.53	0.002
463.74	0.002
463.94	0.002
464.14	0.002
464.35	0.002
464.55	0.002
464.75	0.002
464.95	0.002
465.16	0.002
465.36	0.002
465.56	0.002
465.76	0.002
465.97	0.002
466.17	0.002
466.37	0.002
466.57	0.002
466.78	0.002
466.98	0.002
467.18	0.002
467.38	0.002
467.59	0.002
467.79	0.002
467.99	0.002
468.19	0.002
468.39	0.002
468.60	0.002
468.80	0.002
469.00	0.002
469.20	0.002
469.41	0.002
469.61	0.002
469.81	0.002
470.01	0.002
470.22	0.002
470.42	0.002
470.62	0.002
470.82	0.002
471.02	0.002
471.23	0.002
471.43	0.002
471.63	0.002
471.83	0.002
472.04	0.002
472.24	0.002
472.44	0.002
472.64	0.002
472.84	0.002
473.05	0.002
473.25	0.002
473.45	0.002
473.65	0.002
473.85	0.001
474.06	0.001
474.26	0.001
474.46	0.001
474.66	0.002
474.86	0.002
475.07	0.002
475.27	0.002
475.47	0.002
475.67	0.002
475.87	0.002
476.08	0.002
476.28	0.002
476.48	0.002
476.68	0.002
476.88	0.002
477.09	0.002
477.29	0.002
477.49	0.002
477.69	0.002
477.89	0.002
478.09	0.001
478.30	0.001
478.50	0.002
478.70	0.001
478.90	0.002
479.10	0.001
479.31	0.001
479.51	0.001
479.71	0.001
479.91	0.001
480.11	0.002
480.31	0.001
480.52	0.001
480.72	0.002
480.92	0.001
481.12	0.001
481.32	0.001
481.52	0.001
481.72	0.001
481.93	0.001
482.13	0.001
482.33	0.001
482.53	0.001
482.73	0.001
482.93	0.001
483.14	0.001
483.34	0.001
483.54	0.001
483.74	0.001
483.94	0.001
484.14	0.001
484.34	0.002
484.55	0.002
484.75	0.002
484.95	0.002
485.15	0.001
485.35	0.002
485.55	0.002
485.75	0.002
485.96	0.002
486.16	0.002
486.36	0.001
486.56	0.001
486.76	0.001
486.96	0.001
487.16	0.001
487.36	0.001
487.57	0.001
487.77	0.001
487.97	0.001
488.17	0.001
488.37	0.001
488.57	0.002
488.77	0.002
488.97	0.002
489.18	0.002
489.38	0.002
489.58	0.002
489.78	0.002
489.98	0.002
490.18	0.002
490.38	0.002
490.58	0.002
490.78	0.002
490.98	0.002
491.19	0.002
491.39	0.001
491.59	0.001
491.79	0.001
491.99	0.001
492.19	0.001
492.39	0.001
492.59	0.001
492.79	0.001
492.99	0.001
493.20	0.001
493.40	0.002
493.60	0.002
493.80	0.002
494.00	0.002
494.20	0.002
494.40	0.002
494.60	0.002
494.80	0.002
495.00	0.002
495.20	0.002
495.40	0.002
495.61	0.002
495.81	0.002
496.01	0.002
496.21	0.002
496.41	0.002
496.61	0.002
496.81	0.002
497.01	0.002
497.21	0.002
497.41	0.002
497.61	0.002
497.81	0.002
498.01	0.002
498.21	0.002
498.41	0.002
498.61	0.002
498.82	0.002
499.02	0.002
499.22	0.002
499.42	0.002
499.62	0.002
499.82	0.002
500.02	0.002
500.22	0.002
500.42	0.002
500.62	0.002
500.82	0.002
501.02	0.002
501.22	0.002
501.42	0.001
501.62	0.001
501.82	0.001
502.02	0.001
502.22	0.001
502.42	0.001
502.62	0.001
502.82	0.001
503.02	0.001
503.22	0.001
503.42	0.002
503.63	0.002
503.83	0.002
504.03	0.002
504.23	0.001
504.43	0.001
504.63	0.001
504.83	0.001
505.03	0.001
505.23	0.002
505.43	0.002
505.63	0.002
505.83	0.002
506.03	0.002
506.23	0.002
506.43	0.002
506.63	0.002
506.83	0.002
507.03	0.002
507.23	0.002
507.43	0.002
507.63	0.002
507.83	0.002
508.03	0.002
508.23	0.002
508.43	0.002
508.63	0.002
508.83	0.002
509.03	0.002
509.23	0.002
509.43	0.002
509.63	0.002
509.83	0.002
510.03	0.002
510.23	0.002
510.43	0.002
510.63	0.002
510.83	0.002
511.03	0.002
511.23	0.002
511.43	0.002
511.63	0.002
511.83	0.002
512.03	0.002
512.22	0.002
512.42	0.002
512.62	0.002
512.82	0.001
513.02	0.002
513.22	0.002
513.42	0.001
513.62	0.001
513.82	0.002
514.02	0.002
514.22	0.002
514.42	0.001
514.62	0.002
514.82	0.001
515.02	0.002
515.22	0.002
515.42	0.002
515.62	0.002
515.82	0.002
516.02	0.002
516.22	0.002
516.42	0.002
516.62	0.002
516.82	0.002
517.01	0.002
517.21	0.002
517.41	0.002
517.61	0.002
517.81	0.001
518.01	0.001
518.21	0.001
518.41	0.002
518.61	0.002
518.81	0.001
519.01	0.002
519.21	0.002
519.41	0.002
519.61	0.002
519.81	0.002
520.00	0.002
520.20	0.002
520.40	0.002
520.60	0.002
520.80	0.002
521.00	0.002
521.20	0.002
521.40	0.002
521.60	0.002
521.80	0.002
522.00	0.002
522.20	0.002
522.39	0.002
522.59	0.002
522.79	0.002
522.99	0.002
523.19	0.002
523.39	0.002
523.59	0.002
523.79	0.002
523.99	0.002
524.19	0.002
524.38	0.002
524.58	0.002
524.78	0.002
524.98	0.002
525.18	0.002
525.38	0.002
525.58	0.002
525.78	0.002
525.98	0.002
526.18	0.002
526.37	0.002
526.57	0.002
526.77	0.002
526.97	0.002
527.17	0.002
527.37	0.002
527.57	0.002
527.77	0.002
527.96	0.002
528.16	0.002
528.36	0.001
528.56	0.001
528.76	0.001
528.96	0.002
529.16	0.002
529.36	0.002
529.55	0.002
529.75	0.002
529.95	0.002
530.15	0.002
530.35	0.002
530.55	0.002
530.75	0.002
530.94	0.002
531.14	0.002
531.34	0.002
531.54	0.002
531.74	0.002
531.94	0.002
532.13	0.002
532.33	0.002
532.53	0.002
532.73	0.002
532.93	0.002
533.13	0.002
533.33	0.002
533.52	0.002
533.72	0.002
533.92	0.002
534.12	0.002
534.32	0.002
534.52	0.002
534.71	0.002
534.91	0.002
535.11	0.002
535.31	0.002
535.51	0.002
535.71	0.002
535.90	0.002
536.10	0.002
536.30	0.002
536.50	0.002
536.70	0.002
536.89	0.002
537.09	0.002
537.29	0.002
537.49	0.002
537.69	0.002
537.89	0.002
538.08	0.002
538.28	0.002
538.48	0.002
538.68	0.002
538.88	0.002
539.07	0.002
539.27	0.002
539.47	0.002
539.67	0.002
539.87	0.002
540.06	0.002
540.26	0.002
540.46	0.002
540.66	0.002
540.86	0.002
541.05	0.002
541.25	0.002
541.45	0.002
541.65	0.002
541.84	0.002
542.04	0.002
542.24	0.002
542.44	0.002
542.64	0.001
542.83	0.001
543.03	0.001
543.23	0.001
543.43	0.001
543.62	0.001
543.82	0.001
544.02	0.001
544.22	0.001
544.42	0.001
544.61	0.001
544.81	0.001
545.01	0.001
545.21	0.001
545.40	0.002
545.60	0.002
545.80	0.002
546.00	0.002
546.19	0.002
546.39	0.002
546.59	0.002
546.79	0.002
546.98	0.002
547.18	0.002
547.38	0.002
547.58	0.002
547.77	0.002
547.97	0.002
548.17	0.002
548.37	0.002
548.56	0.002
548.76	0.002
548.96	0.002
549.16	0.002
549.35	0.002
549.55	0.002
549.75	0.002
549.95	0.002
550.14	0.002
550.34	0.002
550.54	0.002
550.73	0.002
550.93	0.002
551.13	0.002
551.33	0.002
551.52	0.002
551.72	0.002
551.92	0.002
552.12	0.002
552.31	0.002
552.51	0.002
552.71	0.002
552.90	0.002
553.10	0.002
553.30	0.002
553.50	0.002
553.69	0.002
553.89	0.002
554.09	0.002
554.28	0.002
554.48	0.002
554.68	0.002
554.87	0.002
555.07	0.002
555.27	0.002
555.47	0.002
555.66	0.002
555.86	0.002
556.06	0.002
556.25	0.002
556.45	0.002
556.65	0.002
556.84	0.002
557.04	0.002
557.24	0.002
557.43	0.002
557.63	0.002
557.83	0.002
558.02	0.002
558.22	0.002
558.42	0.002
558.61	0.002
558.81	0.002
559.01	0.002
559.21	0.002
559.40	0.002
559.60	0.002
559.80	0.002
559.99	0.002
560.19	0.002
560.39	0.002
560.58	0.002
560.78	0.002
560.97	0.002
561.17	0.002
561.37	0.002
561.56	0.002
561.76	0.002
561.96	0.002
562.15	0.002
562.35	0.002
562.55	0.002
562.74	0.002
562.94	0.002
563.14	0.002
563.33	0.001
563.53	0.001
563.73	0.001
563.92	0.001
564.12	0.001
564.31	0.001
564.51	0.001
564.71	0.001
564.90	0.001
565.10	0.001
565.30	0.001
565.49	0.002
565.69	0.001
565.89	0.002
566.08	0.002
566.28	0.002
566.47	0.001
566.67	0.001
566.87	0.001
567.06	0.001
567.26	0.001
567.46	0.001
567.65	0.001
567.85	0.001
568.04	0.001
568.24	0.001
568.44	0.001
568.63	0.001
568.83	0.001
569.02	0.001
569.22	0.001
569.42	0.001
569.61	0.001
569.81	0.001
570.00	0.001
570.20	0.001
570.40	0.002
570.59	0.001
570.79	0.002
570.98	0.001
571.18	0.001
571.38	0.001
571.57	0.001
571.77	0.001
571.96	0.001
572.16	0.002
572.35	0.002
572.55	0.002
572.75	0.002
572.94	0.002
573.14	0.002
573.33	0.002
573.53	0.002
573.73	0.002
573.92	0.002
574.12	0.002
574.31	0.002
574.51	0.001
574.70	0.001
574.90	0.001
575.09	0.001
575.29	0.001
575.49	0.001
575.68	0.000
575.88	0.000
576.07	0.000
576.27	0.000
576.46	-0.000
576.66	-0.000
576.86	-0.000
577.05	-0.000
577.25	-0.000
577.44	-0.000
577.64	-0.000
577.83	-0.000
578.03	-0.000
578.22	-0.000
578.42	-0.000
578.61	-0.000
578.81	-0.000
579.00	-0.000
579.20	-0.000
579.40	-0.000
579.59	-0.000
579.79	-0.000
579.98	-0.000
580.18	-0.000
580.37	-0.000
580.57	-0.000
580.76	-0.000
580.96	-0.000
581.15	-0.000
581.35	-0.000
581.54	-0.000
581.74	-0.000
581.93	-0.000
582.13	-0.000
582.32	-0.000
582.52	-0.000
582.71	-0.000
582.91	-0.000
583.10	-0.000
583.30	-0.000
583.49	-0.000
583.69	-0.000
583.88	-0.000
584.08	-0.000
584.27	-0.000
584.47	-0.000
584.66	-0.000
584.86	-0.000
585.05	-0.000
585.25	-0.000
585.44	-0.000
585.64	-0.000
585.83	-0.000
586.03	-0.000
586.22	-0.000
586.42	0.000
586.61	0.000
586.81	0.000
587.00	0.001
587.20	0.001
587.39	0.001
587.59	0.001
587.78	0.001
587.98	0.001
588.17	0.002
588.37	0.002
588.56	0.002
588.76	0.002
588.95	0.002
589.15	0.002
589.34	0.001
589.54	0.001
589.73	0.001
589.92	0.001
590.12	0.001
590.31	0.001
590.51	0.001
590.70	0.001
590.90	0.001
591.09	0.001
591.29	0.001
591.48	0.001
591.68	0.001
591.87	0.001
592.06	0.001
592.26	0.001
592.45	0.001
592.65	0.001
592.84	0.001
593.04	0.001
593.23	0.001
593.43	0.001
593.62	0.001
593.81	0.002
594.01	0.002
594.20	0.002
594.40	0.002
594.59	0.002
594.79	0.002
594.98	0.002
595.17	0.002
595.37	0.002
595.56	0.002
595.76	0.002
595.95	0.002
596.14	0.002
596.34	0.002
596.53	0.002
596.73	0.001
596.92	0.001
597.12	0.001
597.31	0.001
597.50	0.001
597.70	0.001
597.89	0.001
598.09	0.001
598.28	0.001
598.47	0.001
598.67	0.001
598.86	0.001
599.06	0.001
599.25	0.001
599.44	0.001
599.64	0.001
599.83	0.001
600.03	0.001
600.22	0.001
600.41	0.001
600.61	0.001
600.80	0.001
601.00	0.001
601.19	0.001
601.38	0.001
601.58	0.001
601.77	0.002
601.96	0.002
602.16	0.002
602.35	0.002
602.55	0.002
602.74	0.002
602.93	0.002
603.13	0.001
603.32	0.001
603.51	0.001
603.71	0.001
603.90	0.001
604.09	0.001
604.29	0.001
604.48	0.001
604.68	0.001
604.87	0.001
605.06	0.001
605.26	0.001
605.45	0.001
605.64	0.001
605.84	0.001
606.03	0.001
606.22	0.001
606.42	0.001
606.61	0.001
606.80	0.001
607.00	0.001
607.19	0.001
607.38	0.001
607.58	0.001
607.77	0.001
607.96	0.002
608.16	0.002
608.35	0.002
608.54	0.002
608.74	0.002
608.93	0.002
609.12	0.002
609.32	0.002
609.51	0.002
609.70	0.002
609.90	0.002
610.09	0.002
610.28	0.002
610.48	0.002
610.67	0.002
610.86	0.002
611.06	0.002
611.25	0.002
611.44	0.002
611.64	0.002
611.83	0.002
612.02	0.002
612.21	0.002
612.41	0.002
612.60	0.002
612.79	0.001
612.99	0.001
613.18	0.001
613.37	0.001
613.57	0.001
613.76	0.001
613.95	0.001
614.14	0.001
614.34	0.002
614.53	0.002
614.72	0.002
614.92	0.002
615.11	0.002
615.30	0.002
615.49	0.002
615.69	0.002
615.88	0.002
616.07	0.002
616.26	0.002
616.46	0.002
616.65	0.002
616.84	0.002
617.04	0.002
617.23	0.002
617.42	0.002
617.61	0.002
617.81	0.002
618.00	0.002
618.19	0.002
618.38	0.002
618.58	0.002
618.77	0.002
618.96	0.002
619.15	0.002
619.35	0.002
619.54	0.002
619.73	0.002
619.92	0.002
620.12	0.002
620.31	0.002
620.50	0.002
620.69	0.002
620.89	0.002
621.08	0.002
621.27	0.002
621.46	0.002
621.66	0.002
621.85	0.002
622.04	0.002
622.23	0.002
622.43	0.002
622.62	0.002
622.81	0.002
623.00	0.002
623.19	0.002
623.39	0.002
623.58	0.002
623.77	0.002
623.96	0.002
624.16	0.002
624.35	0.002
624.54	0.002
624.73	0.002
624.92	0.002
625.12	0.002
625.31	0.002
625.50	0.002
625.69	0.002
625.88	0.002
626.08	0.002
626.27	0.002
626.46	0.002
626.65	0.002
626.84	0.002
627.04	0.002
627.23	0.002
627.42	0.002
627.61	0.002
627.80	0.002
628.00	0.002
628.19	0.002
628.38	0.002
628.57	0.002
628.76	0.002
628.96	0.002
629.15	0.002
629.34	0.003
629.53	0.002
629.72	0.002
629.91	0.002
630.11	0.002
630.30	0.002
630.49	0.002
630.68	0.002
630.87	0.002
631.06	0.002
631.26	0.002
631.45	0.002
631.64	0.003
631.83	0.003
632.02	0.003
632.21	0.003
632.41	0.003
632.60	0.003
632.79	0.003
632.98	0.003
633.17	0.003
633.36	0.003
633.55	0.002
633.75	0.002
633.94	0.002
634.13	0.002
634.32	0.002
634.51	0.002
634.70	0.002
634.89	0.002
635.09	0.002
635.28	0.002
635.47	0.003
635.66	0.003
635.85	0.003
636.04	0.003
636.23	0.003
636.43	0.003
636.62	0.003
636.81	0.003
637.00	0.003
637.19	0.003
637.38	0.003
637.57	0.003
637.76	0.003
637.95	0.003
638.15	0.003
638.34	0.003
638.53	0.003
638.72	0.003
638.91	0.003
639.10	0.003
639.29	0.003
639.48	0.003
639.67	0.003
639.87	0.003
640.06	0.003
640.25	0.003
640.44	0.003
640.63	0.003
640.82	0.003
641.01	0.003
641.20	0.003
641.39	0.003
641.58	0.003
641.78	0.003
641.97	0.003
642.16	0.003
642.35	0.003
642.54	0.003
642.73	0.003
642.92	0.003
643.11	0.003
643.30	0.003
643.49	0.003
643.68	0.003
643.87	0.003
644.06	0.003
644.25	0.003
644.45	0.003
644.64	0.003
644.83	0.003
645.02	0.003
645.21	0.003
645.40	0.003
645.59	0.003
645.78	0.003
645.97	0.003
646.16	0.003
646.35	0.002
646.54	0.002
646.73	0.003
646.92	0.002
647.11	0.002
647.30	0.002
647.49	0.002
647.68	0.002
647.88	0.002
648.07	0.002
648.26	0.002
648.45	0.002
648.64	0.002
648.83	0.002
649.02	0.002
649.21	0.002
649.40	0.002
649.59	0.003
649.78	0.003
649.97	0.003
650.16	0.003
650.35	0.003
650.54	0.003
650.73	0.003
650.92	0.003
651.11	0.003
651.30	0.003
651.49	0.003
651.68	0.003
651.87	0.003
652.06	0.003
652.25	0.003
652.44	0.003
652.63	0.002
652.82	0.002
653.01	0.002
653.20	0.001
653.39	0.001
653.58	0.001
653.77	0.001
653.96	0.001
654.15	0.001
654.34	0.001
654.53	0.001
654.72	0.001
654.91	0.001
655.10	0.001
655.29	0.001
655.48	0.001
655.67	0.001
655.86	0.001
656.05	0.002
656.24	0.002
656.43	0.002
656.62	0.002
656.81	0.002
657.00	0.002
657.19	0.002
657.38	0.002
657.57	0.003
657.76	0.003
657.95	0.003
658.14	0.003
658.33	0.003
658.51	0.003
658.70	0.003
658.89	0.003
659.08	0.003
659.27	0.003
659.46	0.003
659.65	0.003
659.84	0.003
660.03	0.003
660.22	0.003
660.41	0.003
660.60	0.003
660.79	0.003
660.98	0.003
661.17	0.003
661.36	0.003
661.55	0.003
661.74	0.003
661.92	0.003
662.11	0.003
662.30	0.003
662.49	0.003
662.68	0.003
662.87	0.003
663.06	0.003
663.25	0.003
663.44	0.003
663.63	0.003
663.82	0.003
664.01	0.003
664.20	0.003
664.38	0.003
664.57	0.003
664.76	0.003
664.95	0.003
665.14	0.003
665.33	0.003
665.52	0.003
665.71	0.003
665.90	0.003
666.09	0.003
666.28	0.002
666.46	0.002
666.65	0.002
666.84	0.003
667.03	0.003
667.22	0.002
667.41	0.002
667.60	0.002
667.79	0.002
667.98	0.002
668.16	0.002
668.35	0.002
668.54	0.002
668.73	0.002
668.92	0.002
669.11	0.002
669.30	0.002
669.49	0.003
669.67	0.003
669.86	0.003
670.05	0.003
670.24	0.003
670.43	0.003
670.62	0.003
670.81	0.003
671.00	0.003
671.18	0.003
671.37	0.003
671.56	0.002
671.75	0.002
671.94	0.002
672.13	0.002
672.32	0.002
672.50	0.003
672.69	0.003
672.88	0.003
673.07	0.002
673.26	0.002
673.45	0.003
673.63	0.003
673.82	0.003
674.01	0.003
674.20	0.003
674.39	0.003
674.58	0.003
674.76	0.003
674.95	0.003
675.14	0.003
675.33	0.003
675.52	0.003
675.71	0.003
675.89	0.003
676.08	0.003
676.27	0.003
676.46	0.003
676.65	0.003
676.84	0.003
677.02	0.003
677.21	0.003
677.40	0.003
677.59	0.003
677.78	0.003
677.96	0.003
678.15	0.003
678.34	0.003
678.53	0.002
678.72	0.002
678.90	0.002
679.09	0.003
679.28	0.002
679.47	0.002
679.66	0.002
679.84	0.003
680.03	0.003
680.22	0.003
680.41	0.002
680.60	0.003
680.78	0.003
680.97	0.003
681.16	0.003
681.35	0.003
681.53	0.003
681.72	0.003
681.91	0.003
682.10	0.002
682.29	0.002
682.47	0.002
682.66	0.002
682.85	0.002
683.04	0.002
683.22	0.002
683.41	0.002
683.60	0.002
683.79	0.002
683.97	0.002
684.16	0.003
684.35	0.003
684.54	0.003
684.72	0.002
684.91	0.003
685.10	0.003
685.29	0.003
685.47	0.002
685.66	0.002
685.85	0.002
686.04	0.002
686.22	0.002
686.41	0.002
686.60	0.002
686.79	0.002
686.97	0.002
687.16	0.002
687.35	0.002
687.54	0.002
687.72	0.003
687.91	0.003
688.10	0.003
688.29	0.003
688.47	0.003
688.66	0.003
688.85	0.003
689.03	0.003
689.22	0.003
689.41	0.003
689.60	0.003
689.78	0.003
689.97	0.003
690.16	0.003
690.34	0.003
690.53	0.003
690.72	0.003
690.91	0.003
691.09	0.003
691.28	0.003
691.47	0.003
691.65	0.003
691.84	0.003
692.03	0.003
692.21	0.003
692.40	0.002
692.59	0.003
692.77	0.003
692.96	0.002
693.15	0.002
693.34	0.002
693.52	0.002
693.71	0.002
693.90	0.002
694.08	0.002
694.27	0.002
694.46	0.003
694.64	0.002
694.83	0.002
695.02	0.002
695.20	0.002
695.39	0.002
695.58	0.002
695.76	0.002
695.95	0.002
696.14	0.002
696.32	0.002
696.51	0.002
696.70	0.002
696.88	0.002
697.07	0.002
697.26	0.002
697.44	0.002
697.63	0.002
697.81	0.002
698.00	0.002
698.19	0.003
698.37	0.003
698.56	0.003
698.75	0.003
698.93	0.003
699.12	0.003
699.31	0.003
699.49	0.003
699.68	0.003
699.87	0.003
700.05	0.003
700.24	0.003
700.42	0.003
700.61	0.003
700.80	0.003
700.98	0.003
701.17	0.003
701.36	0.003
701.54	0.003
701.73	0.003
701.91	0.003
702.10	0.003
702.29	0.003
702.47	0.003
702.66	0.003
702.84	0.003
703.03	0.003
703.22	0.003
703.40	0.003
703.59	0.003
703.77	0.003
703.96	0.003
704.15	0.003
704.33	0.003
704.52	0.003
704.70	0.003
704.89	0.003
705.08	0.003
705.26	0.003
705.45	0.003
705.63	0.003
705.82	0.003
706.00	0.003
706.19	0.003
706.38	0.003
706.56	0.003
706.75	0.003
706.93	0.002
707.12	0.002
707.30	0.002
707.49	0.002
707.68	0.002
707.86	0.002
708.05	0.002
708.23	0.002
708.42	0.002
708.60	0.002
708.79	0.002
708.98	0.002
709.16	0.002
709.35	0.002
709.53	0.002
709.72	0.002
709.90	0.003
710.09	0.002
710.27	0.003
710.46	0.003
710.64	0.003
710.83	0.003
711.02	0.003
711.20	0.003
711.39	0.002
711.57	0.002
711.76	0.002
711.94	0.002
712.13	0.002
712.31	0.002
712.50	0.002
712.68	0.002
712.87	0.002
713.05	0.002
713.24	0.002
713.42	0.003
713.61	0.003
713.79	0.003
713.98	0.003
714.16	0.003
714.35	0.003
714.54	0.003
714.72	0.003
714.91	0.003
715.09	0.003
715.28	0.003
715.46	0.003
715.65	0.003
715.83	0.003
716.02	0.003
716.20	0.003
716.39	0.003
716.57	0.003
716.76	0.003
716.94	0.003
717.12	0.003
717.31	0.003
717.49	0.003
717.68	0.003
717.86	0.002
718.05	0.002
718.23	0.002
718.42	0.002
718.60	0.002
718.79	0.002
718.97	0.002
719.16	0.002
719.34	0.003
719.53	0.003
719.71	0.003
719.90	0.003
720.08	0.003
720.27	0.003
720.45	0.003
720.63	0.003
720.82	0.003
721.00	0.003
721.19	0.003
721.37	0.003
721.56	0.003
721.74	0.003
721.93	0.003
722.11	0.003
722.30	0.003
722.48	0.003
722.66	0.003
722.85	0.004
723.03	0.003
723.22	0.003
723.40	0.003
723.59	0.003
723.77	0.003
723.95	0.003
724.14	0.003
724.32	0.003
724.51	0.003
724.69	0.003
724.88	0.003
725.06	0.003
725.24	0.003
725.43	0.003
725.61	0.002
725.80	0.002
725.98	0.002
726.16	0.002
726.35	0.002
726.53	0.002
726.72	0.002
726.90	0.002
727.09	0.002
727.27	0.002
727.45	0.002
727.64	0.002
727.82	0.003
728.01	0.003
728.19	0.003
728.37	0.003
728.56	0.002
728.74	0.002
728.92	0.002
729.11	0.003
729.29	0.003
729.48	0.003
729.66	0.003
729.84	0.003
730.03	0.002
730.21	0.002
730.40	0.002
730.58	0.002
730.76	0.002
730.95	0.002
731.13	0.002
731.31	0.002
731.50	0.002
731.68	0.002
731.86	0.002
732.05	0.002
732.23	0.002
732.42	0.002
732.60	0.002
732.78	0.003
732.97	0.003
733.15	0.002
733.33	0.002
733.52	0.002
733.70	0.002
733.88	0.002
734.07	0.001
734.25	0.001
734.43	0.001
734.62	0.001
734.80	0.001
734.98	0.000
735.17	0.001
735.35	0.001
735.53	0.000
735.72	0.001
735.90	0.001
736.08	0.001
736.27	0.001
736.45	0.001
736.63	0.001
736.82	0.001
737.00	0.001
737.18	0.002
737.37	0.001
737.55	0.002
737.73	0.001
737.92	0.001
738.10	0.000
738.28	-0.000
738.46	-0.000
738.65	-0.000
738.83	-0.000
739.01	-0.000
739.20	-0.001
739.38	-0.001
739.56	-0.001
739.75	-0.001
739.93	-0.000
740.11	0.001
740.29	0.001
740.48	0.002
740.66	0.002
740.84	0.002
741.03	0.002
741.21	0.003
741.39	0.003
741.57	0.003
741.76	0.003
741.94	0.002
742.12	0.002
742.31	0.002
742.49	0.001
742.67	0.001
742.85	0.001
743.04	0.001
743.22	0.001
743.40	0.001
743.58	0.001
743.77	0.001
743.95	0.001
744.13	0.002
744.31	0.002
744.50	0.002
744.68	0.001
744.86	0.002
745.04	0.002
745.23	0.001
745.41	0.001
745.59	0.001
745.77	0.002
745.96	0.002
746.14	0.002
746.32	0.002
746.50	0.003
746.69	0.003
746.87	0.003
747.05	0.002
747.23	0.002
747.42	0.002
747.60	0.003
747.78	0.002
747.96	0.002
748.14	0.003
748.33	0.003
748.51	0.002
748.69	0.002
748.87	0.002
749.06	0.002
749.24	0.003
749.42	0.002
749.60	0.002
749.78	0.002
749.97	0.002
750.15	0.001
750.33	0.001
750.51	0.002
750.69	0.001
750.88	0.000
751.06	0.000
751.24	0.001
751.42	0.001
751.60	0.001
751.79	0.002
751.97	0.002
752.15	0.002
752.33	0.001
752.51	0.001
752.69	0.001
752.88	0.002
753.06	0.002
753.24	0.002
753.42	0.002
753.60	0.003
753.78	0.002
753.97	0.003
754.15	0.003
754.33	0.003
754.51	0.003
754.69	0.003
754.87	0.002
755.06	0.002
755.24	0.002
755.42	0.002
755.60	0.001
755.78	0.002
755.96	0.002
756.15	0.001
756.33	0.001
756.51	0.002
756.69	0.002
756.87	0.003
757.05	0.002
757.23	0.002
757.42	0.002
757.60	0.001
757.78	0.002
757.96	0.002
758.14	0.002
758.32	0.002
758.50	0.002
758.69	0.002
758.87	0.002
759.05	0.002
759.23	0.002
759.41	0.003
759.59	0.003
759.77	0.002
759.95	0.002
760.13	0.002
760.32	0.003
760.50	0.003
760.68	0.003
760.86	0.003
761.04	0.003
761.22	0.003
761.40	0.003
761.58	0.002
761.76	0.003
761.95	0.003
762.13	0.003
762.31	0.003
762.49	0.002
762.67	0.002
762.85	0.002
763.03	0.002
763.21	0.002
763.39	0.002
763.57	0.002
763.75	0.002
763.94	0.002
764.12	0.001
764.30	0.001
764.48	0.001
764.66	0.001
764.84	0.001
765.02	0.001
765.20	0.001
765.38	0.001
765.56	0.001
765.74	0.001
765.92	0.001
766.10	0.001
766.28	0.001
766.46	0.001
766.65	0.001
766.83	0.001
767.01	0.001
767.19	0.001
767.37	0.001
767.55	0.001
767.73	0.002
767.91	0.001
768.09	0.002
768.27	0.002
768.45	0.002
768.63	0.002
768.81	0.002
768.99	0.002
769.17	0.002
769.35	0.002
769.53	0.002
769.71	0.002
769.89	0.003
770.07	0.003
770.25	0.002
770.43	0.003
770.61	0.002
770.79	0.003
770.97	0.002
771.15	0.002
771.33	0.002
771.51	0.003
771.69	0.002
771.87	0.002
772.05	0.002
772.24	0.002
772.42	0.002
772.60	0.002
772.78	0.002
772.96	0.003
773.14	0.003
773.32	0.002
773.49	0.003
773.67	0.003
773.85	0.003
774.03	0.002
774.21	0.002
774.39	0.003
774.57	0.002
774.75	0.001
774.93	0.001
775.11	0.002
775.29	0.002
775.47	0.002
775.65	0.002
775.83	0.002
776.01	0.002
776.19	0.002
776.37	0.002
776.55	0.002
776.73	0.002
776.91	0.002
777.09	0.003
777.27	0.002
777.45	0.002
777.63	0.003
777.81	0.003
777.99	0.003
778.17	0.003
778.35	0.004
778.53	0.004
778.71	0.004
778.89	0.004
779.07	0.004
779.24	0.003
779.42	0.003
779.60	0.003
779.78	0.002
779.96	0.002
780.14	0.002
780.32	0.001
780.50	0.001
780.68	0.001
780.86	0.001
781.04	0.001
781.22	0.001
781.40	0.002
781.58	0.001
781.75	0.002
781.93	0.002
782.11	0.002
782.29	0.003
782.47	0.003
782.65	0.004
782.83	0.004
783.01	0.003
783.19	0.004
783.37	0.003
783.55	0.003
783.72	0.003
783.90	0.003
784.08	0.003
784.26	0.002
784.44	0.002
784.62	0.002
784.80	0.002
784.98	0.002
785.16	0.002
785.33	0.002
785.51	0.003
785.69	0.003
785.87	0.003
786.05	0.003
786.23	0.003
786.41	0.003
786.59	0.003
786.77	0.003
786.94	0.003
787.12	0.003
787.30	0.003
787.48	0.003
787.66	0.003
787.84	0.002
788.02	0.002
788.19	0.002
788.37	0.003
788.55	0.003
788.73	0.002
788.91	0.003
789.09	0.003
789.27	0.003
789.44	0.003
789.62	0.003
789.80	0.003
789.98	0.003
790.16	0.003
790.34	0.002
790.51	0.003
790.69	0.002
790.87	0.002
791.05	0.002
791.23	0.002
791.41	0.002
791.58	0.002
791.76	0.002
791.94	0.003
792.12	0.003
792.30	0.003
792.48	0.003
792.65	0.003
792.83	0.003
793.01	0.004
793.19	0.003
793.37	0.003
793.54	0.003
793.72	0.002
793.90	0.002
794.08	0.003
794.26	0.003
794.43	0.003
794.61	0.003
794.79	0.003
794.97	0.003
795.15	0.003
795.32	0.003
795.50	0.003
795.68	0.004
795.86	0.004
796.04	0.003
796.21	0.003
796.39	0.003
796.57	0.003
796.75	0.002
796.92	0.003
797.10	0.002
797.28	0.002
797.46	0.002
797.64	0.002
797.81	0.002
797.99	0.002
798.17	0.002
798.35	0.003
798.52	0.002
798.70	0.002
798.88	0.002
799.06	0.003
799.23	0.003
799.41	0.003
799.59	0.003
799.77	0.003
799.94	0.003
800.12	0.003
800.30	0.003
800.48	0.004
800.65	0.004
800.83	0.003
801.01	0.003
801.19	0.003
801.36	0.003
801.54	0.003
801.72	0.003
801.90	0.003
802.07	0.003
802.25	0.003
802.43	0.003
802.60	0.003
802.78	0.004
802.96	0.003
803.14	0.003
803.31	0.003
803.49	0.003
803.67	0.003
803.84	0.002
804.02	0.003
804.20	0.003
804.38	0.002
804.55	0.002
804.73	0.002
804.91	0.002
805.08	0.002
805.26	0.003
805.44	0.003
805.61	0.003
805.79	0.003
805.97	0.003
806.15	0.003
806.32	0.003
806.50	0.003
806.68	0.002
806.85	0.002
807.03	0.002
807.21	0.002
807.38	0.002
807.56	0.002
807.74	0.002
807.91	0.002
808.09	0.002
808.27	0.002
808.44	0.002
808.62	0.002
808.80	0.003
808.97	0.003
809.15	0.003
809.33	0.003
809.50	0.002
809.68	0.002
809.86	0.002
810.03	0.003
810.21	0.003
810.39	0.003
810.56	0.003
810.74	0.003
810.91	0.003
811.09	0.002
811.27	0.002
811.44	0.002
811.62	0.002
811.80	0.002
811.97	0.002
812.15	0.002
812.33	0.003
812.50	0.003
812.68	0.003
812.85	0.003
813.03	0.003
813.21	0.003
813.38	0.003
813.56	0.003
813.74	0.003
813.91	0.003
814.09	0.003
814.26	0.003
814.44	0.002
814.62	0.002
814.79	0.002
814.97	0.002
815.14	0.003
815.32	0.002
815.50	0.002
815.67	0.002
815.85	0.002
816.02	0.002
816.20	0.002
816.38	0.003
816.55	0.003
816.73	0.003
816.90	0.003
817.08	0.002
817.26	0.002
817.43	0.002
817.61	0.002
817.78	0.002
817.96	0.002
818.13	0.002
818.31	0.002
818.49	0.002
818.66	0.002
818.84	0.002
819.01	0.002
819.19	0.002
819.36	0.003
819.54	0.003
819.71	0.003
819.89	0.003
820.07	0.003
820.24	0.003
820.42	0.003
820.59	0.003
820.77	0.003
820.94	0.003
821.12	0.004
821.29	0.003
821.47	0.003
821.64	0.004
821.82	0.004
822.00	0.004
822.17	0.004
822.35	0.003
822.52	0.003
822.70	0.004
822.87	0.003
823.05	0.003
823.22	0.003
823.40	0.002
823.57	0.002
823.75	0.002
823.92	0.002
824.10	0.003
824.27	0.003
824.45	0.002
824.62	0.002
824.80	0.002
824.97	0.003
825.15	0.002
825.32	0.003
825.50	0.002
825.67	0.003
825.85	0.002
826.02	0.002
826.20	0.003
826.37	0.003
826.55	0.003
826.72	0.004
826.90	0.004
827.07	0.004
827.25	0.004
827.42	0.004
827.60	0.004
827.77	0.004
827.95	0.004
828.12	0.004
828.30	0.003
828.47	0.003
828.65	0.003
828.82	0.004
829.00	0.004
829.17	0.003
829.34	0.004
829.52	0.004
829.69	0.004
829.87	0.004
830.04	0.003
830.22	0.003
830.39	0.003
830.57	0.004
830.74	0.003
830.92	0.002
831.09	0.003
831.26	0.003
831.44	0.004
831.61	0.004
831.79	0.005
831.96	0.005
832.14	0.006
832.31	0.005
832.49	0.004
832.66	0.005
832.83	0.005
833.01	0.005
833.18	0.004
833.36	0.002
833.53	0.002
833.70	0.002
833.88	0.001
834.05	0.000
834.23	0.001
834.40	0.001
834.58	0.001
834.75	-0.000
834.92	-0.000
835.10	-0.001
835.27	-0.001
835.45	-0.001
835.62	-0.002
835.79	-0.001
835.97	-0.001
836.14	-0.000
836.32	-0.000
836.49	-0.000
836.66	-0.001
836.84	-0.002
837.01	-0.002
837.18	-0.001
837.36	0.000
837.53	0.001
837.71	0.000
837.88	0.001
838.05	-0.001
838.23	0.000
838.40	0.001
838.58	0.001
838.75	0.001
838.92	0.001
839.10	0.001
839.27	0.001
839.44	0.001
839.62	-0.000
839.79	-0.001
839.96	0.002
840.14	0.001
840.31	0.002
840.48	0.002
840.66	0.005
840.83	0.004
841.01	0.004
841.18	0.003
841.35	0.003
841.53	0.003
841.70	0.003
841.87	0.002
842.05	0.000
842.22	-0.002
842.39	-0.002
842.57	-0.004
842.74	-0.004
842.91	-0.002
843.09	-0.003
843.26	-0.002
843.43	-0.001
843.60	-0.002
843.78	-0.001
843.95	0.001
844.12	0.001
844.30	0.001
844.47	0.001
844.64	0.003
844.82	0.001
844.99	0.001
845.16	0.001
845.34	-0.000
845.51	0.000
845.68	0.002
845.85	-0.001
846.03	0.000
846.20	0.001
846.37	0.001
846.55	0.002
846.72	0.003
846.89	0.004
847.06	0.004
847.24	0.005
847.41	0.005
847.58	0.003
847.76	0.006
847.93	0.006
848.10	0.006
848.27	0.008
848.45	0.007
848.62	0.008
848.79	0.006
848.97	0.007
849.14	0.006
849.31	0.007
849.48	0.007
849.66	0.007
849.83	0.007
850.00	0.008
850.17	0.005
850.35	0.003
850.52	0.000
850.69	0.002
850.86	0.000
851.04	0.003
851.21	0.004
851.38	0.001
851.55	-0.000
851.72	0.001
851.90	0.001
852.07	0.002
852.24	0.002
852.41	0.001
852.59	0.001
852.76	0.002
852.93	-0.001
853.10	-0.002
853.28	0.001
853.45	-0.000
853.62	-0.002
853.79	-0.002
853.96	-0.001
854.14	-0.001
854.31	0.002
854.48	0.002
854.65	0.001
854.82	0.002
855.00	0.002
855.17	0.001
855.34	0.004
855.51	0.006
855.68	0.005
855.86	0.006
856.03	0.004
856.20	0.001
856.37	-0.001
856.54	-0.001
856.72	-0.001
856.89	-0.002
857.06	-0.003
857.23	-0.003
857.40	-0.004
857.57	-0.005
857.75	-0.007
857.92	-0.006
858.09	-0.003
858.26	-0.002
858.43	-0.002
858.60	-0.004
858.78	-0.003
858.95	0.002
859.12	0.000
859.29	-0.001
859.46	-0.002
859.63	0.001
859.81	0.003
859.98	0.002
860.15	0.002
860.32	0.007
860.49	0.006
860.66	0.007
860.83	0.003
861.01	0.005
861.18	0.006
861.35	0.008
861.52	0.008
861.69	0.007
861.86	0.008
862.03	0.009
862.21	0.006
862.38	0.009
862.55	0.007
862.72	0.007
862.89	0.007
863.06	0.008
863.23	0.011
863.40	0.009
863.58	0.005
863.75	0.005
863.92	0.003
864.09	0.003
864.26	-0.002
864.43	-0.003
864.60	-0.003
864.77	-0.003
864.94	-0.000
865.11	-0.007
865.29	-0.006
865.46	-0.002
865.63	-0.003
865.80	-0.001
865.97	0.001
866.14	0.004
866.31	0.004
866.48	0.004
866.65	0.007
866.82	0.001
866.99	0.002
867.16	-0.002
867.34	-0.006
867.51	-0.006
867.68	-0.005
867.85	-0.007
868.02	-0.010
868.19	-0.010
868.36	-0.013
868.53	-0.019
868.70	-0.018
868.87	-0.020
869.04	-0.013
869.21	-0.010
869.38	-0.012
869.55	-0.010
869.72	-0.013
869.89	-0.006
870.06	-0.006
870.24	0.002
870.41	0.003
870.58	0.004
870.75	0.009
870.92	0.008
871.09	0.007
871.26	0.009
871.43	0.008
871.60	0.012
871.77	0.006
871.94	0.009
872.11	0.003
872.28	0.001
872.45	0.003
872.62	0.003
872.79	-0.001
872.96	-0.001
873.13	-0.009
873.30	-0.013
873.47	-0.011
873.64	-0.011
873.81	-0.014
873.98	-0.010
874.15	-0.003
874.32	-0.009
874.49	-0.003
874.66	-0.003
874.83	0.000
875.00	0.005
875.17	0.007
875.34	0.004
875.51	0.009
875.68	0.011
875.85	0.007
876.02	0.000
876.19	0.004
876.36	-0.004
876.53	-0.003
876.70	-0.005
876.87	-0.000
877.04	0.001
877.21	0.003
877.38	-0.001
877.55	0.001
877.72	0.001
877.89	-0.001
878.06	-0.007
878.23	0.000
878.39	-0.001
878.56	0.005
878.73	0.004
878.90	0.001
879.07	-0.003
879.24	-0.002
879.41	-0.001
879.58	0.003
879.75	0.008
879.92	0.013
880.09	0.006
880.26	0.007
880.43	-0.002
880.60	-0.002
880.77	0.003
880.94	0.008
881.11	0.012
881.27	0.012
881.44	0.010
881.61	0.010
881.78	0.008
881.95	0.006
882.12	0.008
882.29	0.009
882.46	0.005
882.63	0.004
882.80	0.005
882.97	0.001
883.14	-0.011
883.30	-0.011
883.47	-0.009
883.64	-0.012
883.81	-0.006
883.98	-0.006
884.15	-0.003
884.32	0.005
884.49	0.004
884.66	0.001
884.82	0.003
884.99	0.008
885.16	0.015
885.33	0.006
885.50	0.005
885.67	0.005
885.84	0.011
886.01	0.003
886.17	-0.009
886.34	0.005
886.51	0.005
886.68	0.003
886.85	0.014
887.02	0.018
887.19	0.023
887.36	0.024
887.52	0.018
887.69	0.013
887.86	0.027
888.03	0.024
888.20	0.021
888.37	0.016
888.54	0.009
888.70	0.002
888.87	-0.014
889.04	-0.010
889.21	-0.005
889.38	0.003
889.55	0.006
889.71	-0.049
889.88	0.017
890.05	-0.028
890.22	0.041
890.39	0.045
>>>>>End Processed Spectral Data<<<<<
