SpectraSuite Data File
++++++++++++++++++++++++++++++++++++
Date: Mon Jun 15 09:34:46 PDT 2015
User: introlabs
Dark Spectrum Present: Yes
Reference Spectrum Present: Yes
Number of Sampled Component Spectra: 1
Spectrometers: USB4H08886
Integration Time (usec): 44366 (USB4H08886)
Spectra Averaged: 20 (USB4H08886)
Boxcar Smoothing: 5 (USB4H08886)
Correct for Electrical Dark: Yes (USB4H08886)
Strobe/Lamp Enabled: No (USB4H08886)
Correct for Detector Non-linearity: Yes (USB4H08886)
Correct for Stray Light: Yes (USB4H08886)
Number of Pixels in Processed Spectrum: 3648
>>>>>Begin Processed Spectral Data<<<<<
178.14	-0.000
178.36	-0.000
178.57	-0.000
178.79	-0.000
179.01	-0.912
179.22	-0.000
179.44	-0.000
179.65	-0.405
179.87	0.234
180.08	0.311
180.30	0.200
180.52	0.107
180.73	0.068
180.95	0.037
181.16	0.048
181.38	0.038
181.59	0.035
181.81	0.020
182.03	0.046
182.24	0.043
182.46	0.056
182.67	0.051
182.89	0.048
183.10	0.051
183.32	0.052
183.54	0.044
183.75	0.053
183.97	0.062
184.18	0.060
184.40	0.050
184.61	0.058
184.83	0.057
185.04	0.062
185.26	0.065
185.48	0.063
185.69	0.070
185.91	0.063
186.12	0.052
186.34	0.058
186.55	0.058
186.77	0.062
186.98	0.061
187.20	0.051
187.42	0.055
187.63	0.060
187.85	0.065
188.06	0.068
188.28	0.080
188.49	0.082
188.71	0.073
188.92	0.067
189.14	0.060
189.36	0.061
189.57	0.060
189.79	0.049
190.00	0.040
190.22	0.031
190.43	0.025
190.65	0.018
190.86	0.027
191.08	0.024
191.29	0.031
191.51	0.038
191.72	0.027
191.94	0.026
192.16	0.032
192.37	0.035
192.59	0.043
192.80	0.045
193.02	0.052
193.23	0.049
193.45	0.045
193.66	0.041
193.88	0.034
194.09	0.042
194.31	0.047
194.52	0.044
194.74	0.042
194.95	0.040
195.17	0.037
195.38	0.026
195.60	0.013
195.81	0.026
196.03	0.029
196.25	0.037
196.46	0.031
196.68	0.029
196.89	0.031
197.11	0.034
197.32	0.028
197.54	0.025
197.75	0.043
197.97	0.046
198.18	0.037
198.40	0.041
198.61	0.031
198.83	0.031
199.04	0.030
199.26	0.028
199.47	0.024
199.69	0.030
199.90	0.047
200.12	0.041
200.33	0.044
200.55	0.042
200.76	0.032
200.98	0.036
201.19	0.036
201.41	0.035
201.62	0.044
201.84	0.046
202.05	0.050
202.27	0.037
202.48	0.032
202.70	0.034
202.91	0.037
203.13	0.038
203.34	0.035
203.56	0.029
203.77	0.033
203.99	0.021
204.20	0.018
204.42	0.012
204.63	0.017
204.85	0.017
205.06	0.011
205.28	0.015
205.49	0.019
205.71	0.023
205.92	0.032
206.14	0.029
206.35	0.039
206.56	0.044
206.78	0.036
206.99	0.036
207.21	0.035
207.42	0.043
207.64	0.036
207.85	0.035
208.07	0.038
208.28	0.037
208.50	0.040
208.71	0.035
208.93	0.034
209.14	0.042
209.36	0.038
209.57	0.046
209.79	0.046
210.00	0.049
210.22	0.049
210.43	0.041
210.64	0.037
210.86	0.026
211.07	0.025
211.29	0.022
211.50	0.028
211.72	0.025
211.93	0.022
212.15	0.025
212.36	0.025
212.58	0.027
212.79	0.036
213.01	0.035
213.22	0.038
213.43	0.041
213.65	0.040
213.86	0.032
214.08	0.036
214.29	0.037
214.51	0.035
214.72	0.034
214.94	0.032
215.15	0.035
215.36	0.033
215.58	0.035
215.79	0.035
216.01	0.036
216.22	0.042
216.44	0.040
216.65	0.040
216.87	0.043
217.08	0.043
217.29	0.050
217.51	0.045
217.72	0.048
217.94	0.049
218.15	0.049
218.37	0.045
218.58	0.038
218.80	0.047
219.01	0.046
219.22	0.035
219.44	0.037
219.65	0.030
219.87	0.035
220.08	0.037
220.30	0.033
220.51	0.034
220.72	0.035
220.94	0.034
221.15	0.030
221.37	0.027
221.58	0.033
221.79	0.040
222.01	0.032
222.22	0.026
222.44	0.023
222.65	0.029
222.87	0.029
223.08	0.030
223.29	0.026
223.51	0.020
223.72	0.021
223.94	0.015
224.15	0.010
224.36	0.018
224.58	0.016
224.79	0.021
225.01	0.015
225.22	0.014
225.44	0.014
225.65	0.021
225.86	0.024
226.08	0.022
226.29	0.022
226.51	0.025
226.72	0.026
226.93	0.028
227.15	0.018
227.36	0.021
227.58	0.016
227.79	0.021
228.00	0.020
228.22	0.014
228.43	0.012
228.65	0.013
228.86	0.010
229.07	0.008
229.29	0.008
229.50	0.011
229.72	0.011
229.93	0.012
230.14	0.008
230.36	0.005
230.57	0.006
230.78	0.007
231.00	0.005
231.21	0.001
231.43	0.000
231.64	-0.003
231.85	-0.001
232.07	-0.003
232.28	-0.000
232.50	-0.001
232.71	-0.002
232.92	-0.002
233.14	-0.003
233.35	-0.004
233.56	-0.003
233.78	-0.006
233.99	-0.008
234.21	-0.010
234.42	-0.009
234.63	-0.011
234.85	-0.011
235.06	-0.012
235.27	-0.012
235.49	-0.011
235.70	-0.012
235.91	-0.013
236.13	-0.010
236.34	-0.012
236.56	-0.012
236.77	-0.012
236.98	-0.012
237.20	-0.012
237.41	-0.011
237.62	-0.010
237.84	-0.011
238.05	-0.010
238.26	-0.011
238.48	-0.011
238.69	-0.009
238.91	-0.008
239.12	-0.008
239.33	-0.007
239.55	-0.006
239.76	-0.006
239.97	-0.006
240.19	-0.005
240.40	-0.005
240.61	-0.004
240.83	-0.003
241.04	-0.003
241.25	-0.002
241.47	-0.002
241.68	-0.001
241.89	-0.000
242.11	0.000
242.32	0.001
242.53	0.001
242.75	0.002
242.96	0.003
243.17	0.003
243.39	0.003
243.60	0.004
243.81	0.004
244.03	0.004
244.24	0.005
244.45	0.006
244.67	0.006
244.88	0.007
245.09	0.008
245.31	0.009
245.52	0.009
245.73	0.009
245.95	0.009
246.16	0.010
246.37	0.010
246.59	0.010
246.80	0.010
247.01	0.010
247.23	0.010
247.44	0.010
247.65	0.010
247.87	0.010
248.08	0.010
248.29	0.010
248.51	0.011
248.72	0.011
248.93	0.012
249.15	0.013
249.36	0.013
249.57	0.013
249.78	0.013
250.00	0.013
250.21	0.014
250.42	0.015
250.64	0.015
250.85	0.016
251.06	0.015
251.28	0.016
251.49	0.016
251.70	0.016
251.92	0.017
252.13	0.018
252.34	0.018
252.55	0.018
252.77	0.017
252.98	0.018
253.19	0.018
253.41	0.018
253.62	0.018
253.83	0.018
254.05	0.018
254.26	0.018
254.47	0.018
254.68	0.017
254.90	0.018
255.11	0.018
255.32	0.018
255.54	0.018
255.75	0.018
255.96	0.019
256.17	0.018
256.39	0.019
256.60	0.019
256.81	0.018
257.03	0.019
257.24	0.019
257.45	0.018
257.66	0.018
257.88	0.017
258.09	0.017
258.30	0.017
258.51	0.017
258.73	0.017
258.94	0.017
259.15	0.017
259.37	0.017
259.58	0.017
259.79	0.016
260.00	0.017
260.22	0.017
260.43	0.017
260.64	0.016
260.85	0.016
261.07	0.016
261.28	0.016
261.49	0.015
261.71	0.015
261.92	0.015
262.13	0.015
262.34	0.015
262.56	0.014
262.77	0.014
262.98	0.014
263.19	0.014
263.41	0.013
263.62	0.013
263.83	0.012
264.04	0.012
264.26	0.012
264.47	0.012
264.68	0.012
264.89	0.012
265.11	0.011
265.32	0.011
265.53	0.011
265.74	0.011
265.96	0.010
266.17	0.011
266.38	0.010
266.59	0.010
266.81	0.010
267.02	0.010
267.23	0.009
267.44	0.009
267.65	0.008
267.87	0.008
268.08	0.007
268.29	0.007
268.50	0.007
268.72	0.007
268.93	0.007
269.14	0.006
269.35	0.006
269.57	0.005
269.78	0.005
269.99	0.005
270.20	0.005
270.41	0.004
270.63	0.004
270.84	0.003
271.05	0.003
271.26	0.003
271.48	0.002
271.69	0.002
271.90	0.002
272.11	0.002
272.32	0.001
272.54	0.001
272.75	0.001
272.96	0.000
273.17	0.000
273.39	0.000
273.60	0.000
273.81	-0.000
274.02	-0.000
274.23	0.000
274.45	-0.000
274.66	-0.000
274.87	-0.000
275.08	-0.000
275.29	-0.001
275.51	-0.001
275.72	-0.001
275.93	-0.001
276.14	-0.001
276.35	-0.001
276.57	-0.001
276.78	-0.001
276.99	-0.001
277.20	-0.001
277.41	-0.001
277.63	-0.001
277.84	-0.001
278.05	-0.001
278.26	-0.001
278.47	-0.001
278.69	-0.001
278.90	-0.000
279.11	-0.000
279.32	-0.000
279.53	0.000
279.74	0.000
279.96	0.001
280.17	0.001
280.38	0.001
280.59	0.001
280.80	0.002
281.02	0.002
281.23	0.002
281.44	0.002
281.65	0.002
281.86	0.002
282.07	0.002
282.29	0.002
282.50	0.002
282.71	0.003
282.92	0.003
283.13	0.003
283.35	0.003
283.56	0.003
283.77	0.004
283.98	0.004
284.19	0.004
284.40	0.005
284.62	0.005
284.83	0.005
285.04	0.006
285.25	0.007
285.46	0.007
285.67	0.008
285.88	0.008
286.10	0.009
286.31	0.009
286.52	0.010
286.73	0.011
286.94	0.011
287.15	0.012
287.37	0.013
287.58	0.013
287.79	0.014
288.00	0.014
288.21	0.015
288.42	0.015
288.63	0.016
288.85	0.016
289.06	0.017
289.27	0.017
289.48	0.018
289.69	0.018
289.90	0.019
290.11	0.019
290.33	0.020
290.54	0.020
290.75	0.021
290.96	0.021
291.17	0.021
291.38	0.022
291.59	0.022
291.81	0.022
292.02	0.023
292.23	0.023
292.44	0.023
292.65	0.024
292.86	0.024
293.07	0.024
293.28	0.024
293.50	0.024
293.71	0.025
293.92	0.025
294.13	0.025
294.34	0.025
294.55	0.026
294.76	0.026
294.97	0.026
295.19	0.026
295.40	0.026
295.61	0.026
295.82	0.026
296.03	0.026
296.24	0.026
296.45	0.026
296.66	0.025
296.87	0.025
297.09	0.026
297.30	0.026
297.51	0.026
297.72	0.026
297.93	0.026
298.14	0.026
298.35	0.026
298.56	0.026
298.77	0.026
298.99	0.026
299.20	0.026
299.41	0.026
299.62	0.026
299.83	0.026
300.04	0.026
300.25	0.026
300.46	0.027
300.67	0.027
300.88	0.027
301.10	0.027
301.31	0.027
301.52	0.027
301.73	0.027
301.94	0.027
302.15	0.027
302.36	0.027
302.57	0.027
302.78	0.026
302.99	0.026
303.20	0.026
303.41	0.026
303.63	0.026
303.84	0.026
304.05	0.026
304.26	0.026
304.47	0.026
304.68	0.026
304.89	0.026
305.10	0.026
305.31	0.026
305.52	0.026
305.73	0.026
305.94	0.026
306.15	0.026
306.37	0.026
306.58	0.026
306.79	0.026
307.00	0.026
307.21	0.026
307.42	0.026
307.63	0.026
307.84	0.026
308.05	0.026
308.26	0.026
308.47	0.026
308.68	0.026
308.89	0.026
309.10	0.026
309.31	0.026
309.52	0.026
309.73	0.026
309.95	0.026
310.16	0.026
310.37	0.026
310.58	0.026
310.79	0.026
311.00	0.025
311.21	0.026
311.42	0.026
311.63	0.026
311.84	0.026
312.05	0.026
312.26	0.026
312.47	0.025
312.68	0.026
312.89	0.026
313.10	0.026
313.31	0.026
313.52	0.026
313.73	0.026
313.94	0.026
314.15	0.025
314.36	0.026
314.57	0.026
314.78	0.026
314.99	0.026
315.21	0.026
315.42	0.025
315.63	0.025
315.84	0.025
316.05	0.025
316.26	0.025
316.47	0.025
316.68	0.025
316.89	0.025
317.10	0.025
317.31	0.025
317.52	0.025
317.73	0.025
317.94	0.025
318.15	0.025
318.36	0.025
318.57	0.025
318.78	0.025
318.99	0.025
319.20	0.025
319.41	0.025
319.62	0.025
319.83	0.025
320.04	0.025
320.25	0.025
320.46	0.025
320.67	0.025
320.88	0.025
321.09	0.025
321.30	0.025
321.51	0.024
321.72	0.024
321.93	0.024
322.14	0.024
322.35	0.024
322.56	0.025
322.77	0.025
322.98	0.025
323.19	0.025
323.40	0.025
323.61	0.025
323.82	0.025
324.03	0.025
324.24	0.025
324.45	0.025
324.66	0.025
324.87	0.025
325.08	0.025
325.29	0.025
325.50	0.025
325.71	0.025
325.92	0.025
326.13	0.025
326.34	0.025
326.55	0.025
326.76	0.025
326.97	0.025
327.18	0.025
327.39	0.025
327.60	0.025
327.80	0.025
328.01	0.025
328.22	0.025
328.43	0.025
328.64	0.025
328.85	0.025
329.06	0.025
329.27	0.025
329.48	0.025
329.69	0.025
329.90	0.025
330.11	0.025
330.32	0.025
330.53	0.025
330.74	0.025
330.95	0.025
331.16	0.025
331.37	0.025
331.58	0.025
331.79	0.025
332.00	0.025
332.21	0.025
332.42	0.025
332.63	0.025
332.83	0.025
333.04	0.025
333.25	0.025
333.46	0.025
333.67	0.025
333.88	0.025
334.09	0.025
334.30	0.025
334.51	0.025
334.72	0.025
334.93	0.025
335.14	0.025
335.35	0.025
335.56	0.025
335.77	0.025
335.98	0.025
336.18	0.025
336.39	0.026
336.60	0.026
336.81	0.026
337.02	0.026
337.23	0.026
337.44	0.026
337.65	0.026
337.86	0.026
338.07	0.026
338.28	0.026
338.49	0.026
338.70	0.026
338.91	0.026
339.11	0.026
339.32	0.026
339.53	0.026
339.74	0.026
339.95	0.026
340.16	0.026
340.37	0.026
340.58	0.026
340.79	0.026
341.00	0.026
341.21	0.026
341.41	0.026
341.62	0.026
341.83	0.026
342.04	0.026
342.25	0.026
342.46	0.026
342.67	0.026
342.88	0.026
343.09	0.026
343.30	0.026
343.50	0.026
343.71	0.026
343.92	0.026
344.13	0.026
344.34	0.027
344.55	0.027
344.76	0.027
344.97	0.027
345.18	0.027
345.38	0.027
345.59	0.027
345.80	0.027
346.01	0.027
346.22	0.027
346.43	0.027
346.64	0.027
346.85	0.027
347.06	0.027
347.26	0.027
347.47	0.027
347.68	0.027
347.89	0.027
348.10	0.027
348.31	0.027
348.52	0.027
348.73	0.027
348.93	0.027
349.14	0.027
349.35	0.027
349.56	0.027
349.77	0.027
349.98	0.027
350.19	0.027
350.39	0.027
350.60	0.027
350.81	0.027
351.02	0.027
351.23	0.027
351.44	0.027
351.65	0.027
351.86	0.027
352.06	0.027
352.27	0.027
352.48	0.027
352.69	0.027
352.90	0.027
353.11	0.028
353.31	0.028
353.52	0.028
353.73	0.028
353.94	0.028
354.15	0.028
354.36	0.028
354.57	0.028
354.77	0.028
354.98	0.028
355.19	0.028
355.40	0.028
355.61	0.028
355.82	0.028
356.02	0.028
356.23	0.028
356.44	0.028
356.65	0.028
356.86	0.028
357.07	0.028
357.27	0.028
357.48	0.028
357.69	0.028
357.90	0.028
358.11	0.028
358.32	0.028
358.52	0.028
358.73	0.028
358.94	0.028
359.15	0.028
359.36	0.028
359.56	0.028
359.77	0.028
359.98	0.028
360.19	0.028
360.40	0.028
360.61	0.028
360.81	0.028
361.02	0.028
361.23	0.028
361.44	0.028
361.65	0.028
361.85	0.028
362.06	0.028
362.27	0.028
362.48	0.028
362.69	0.028
362.89	0.028
363.10	0.028
363.31	0.028
363.52	0.028
363.73	0.028
363.93	0.028
364.14	0.028
364.35	0.028
364.56	0.028
364.77	0.028
364.97	0.028
365.18	0.028
365.39	0.028
365.60	0.028
365.81	0.028
366.01	0.028
366.22	0.028
366.43	0.028
366.64	0.028
366.84	0.028
367.05	0.028
367.26	0.028
367.47	0.028
367.68	0.029
367.88	0.029
368.09	0.029
368.30	0.029
368.51	0.029
368.71	0.029
368.92	0.029
369.13	0.029
369.34	0.029
369.55	0.029
369.75	0.029
369.96	0.029
370.17	0.029
370.38	0.029
370.58	0.029
370.79	0.029
371.00	0.029
371.21	0.029
371.41	0.029
371.62	0.029
371.83	0.029
372.04	0.029
372.24	0.029
372.45	0.029
372.66	0.029
372.87	0.029
373.07	0.029
373.28	0.029
373.49	0.029
373.70	0.029
373.90	0.029
374.11	0.029
374.32	0.029
374.53	0.029
374.73	0.029
374.94	0.029
375.15	0.028
375.36	0.028
375.56	0.029
375.77	0.028
375.98	0.028
376.19	0.028
376.39	0.028
376.60	0.028
376.81	0.028
377.02	0.028
377.22	0.028
377.43	0.029
377.64	0.028
377.84	0.028
378.05	0.029
378.26	0.028
378.47	0.029
378.67	0.029
378.88	0.029
379.09	0.029
379.30	0.029
379.50	0.029
379.71	0.028
379.92	0.029
380.12	0.028
380.33	0.028
380.54	0.029
380.75	0.029
380.95	0.029
381.16	0.028
381.37	0.028
381.57	0.028
381.78	0.028
381.99	0.029
382.20	0.029
382.40	0.029
382.61	0.029
382.82	0.029
383.02	0.028
383.23	0.029
383.44	0.029
383.64	0.029
383.85	0.029
384.06	0.029
384.27	0.029
384.47	0.029
384.68	0.029
384.89	0.029
385.09	0.029
385.30	0.028
385.51	0.028
385.71	0.028
385.92	0.028
386.13	0.028
386.33	0.028
386.54	0.028
386.75	0.028
386.95	0.028
387.16	0.028
387.37	0.028
387.58	0.028
387.78	0.028
387.99	0.028
388.20	0.028
388.40	0.028
388.61	0.028
388.82	0.028
389.02	0.028
389.23	0.028
389.44	0.028
389.64	0.028
389.85	0.028
390.06	0.028
390.26	0.028
390.47	0.028
390.68	0.028
390.88	0.028
391.09	0.028
391.30	0.028
391.50	0.028
391.71	0.027
391.92	0.027
392.12	0.028
392.33	0.028
392.53	0.028
392.74	0.028
392.95	0.028
393.15	0.028
393.36	0.028
393.57	0.028
393.77	0.028
393.98	0.028
394.19	0.029
394.39	0.029
394.60	0.029
394.81	0.029
395.01	0.029
395.22	0.028
395.43	0.028
395.63	0.028
395.84	0.028
396.04	0.028
396.25	0.028
396.46	0.028
396.66	0.028
396.87	0.028
397.08	0.028
397.28	0.028
397.49	0.028
397.69	0.028
397.90	0.028
398.11	0.028
398.31	0.028
398.52	0.028
398.73	0.028
398.93	0.028
399.14	0.028
399.34	0.028
399.55	0.028
399.76	0.028
399.96	0.028
400.17	0.028
400.37	0.028
400.58	0.028
400.79	0.028
400.99	0.028
401.20	0.028
401.41	0.028
401.61	0.028
401.82	0.028
402.02	0.028
402.23	0.027
402.44	0.027
402.64	0.028
402.85	0.027
403.05	0.028
403.26	0.028
403.47	0.028
403.67	0.028
403.88	0.028
404.08	0.028
404.29	0.028
404.50	0.027
404.70	0.027
404.91	0.027
405.11	0.027
405.32	0.027
405.52	0.027
405.73	0.027
405.94	0.027
406.14	0.027
406.35	0.027
406.55	0.027
406.76	0.027
406.97	0.027
407.17	0.027
407.38	0.027
407.58	0.027
407.79	0.027
407.99	0.027
408.20	0.027
408.41	0.027
408.61	0.027
408.82	0.027
409.02	0.027
409.23	0.027
409.43	0.027
409.64	0.027
409.84	0.027
410.05	0.027
410.26	0.027
410.46	0.027
410.67	0.027
410.87	0.027
411.08	0.027
411.28	0.027
411.49	0.027
411.69	0.027
411.90	0.027
412.11	0.027
412.31	0.027
412.52	0.027
412.72	0.027
412.93	0.027
413.13	0.027
413.34	0.027
413.54	0.027
413.75	0.027
413.95	0.027
414.16	0.027
414.37	0.027
414.57	0.027
414.78	0.027
414.98	0.027
415.19	0.027
415.39	0.027
415.60	0.027
415.80	0.027
416.01	0.027
416.21	0.027
416.42	0.027
416.62	0.027
416.83	0.026
417.03	0.026
417.24	0.026
417.44	0.026
417.65	0.026
417.86	0.026
418.06	0.026
418.27	0.026
418.47	0.026
418.68	0.026
418.88	0.026
419.09	0.026
419.29	0.026
419.50	0.026
419.70	0.026
419.91	0.026
420.11	0.026
420.32	0.026
420.52	0.026
420.73	0.026
420.93	0.026
421.14	0.026
421.34	0.026
421.55	0.026
421.75	0.026
421.96	0.026
422.16	0.026
422.37	0.026
422.57	0.026
422.78	0.026
422.98	0.026
423.19	0.026
423.39	0.026
423.60	0.026
423.80	0.026
424.01	0.026
424.21	0.027
424.42	0.027
424.62	0.027
424.83	0.027
425.03	0.027
425.23	0.027
425.44	0.027
425.64	0.026
425.85	0.026
426.05	0.026
426.26	0.026
426.46	0.026
426.67	0.026
426.87	0.026
427.08	0.026
427.28	0.026
427.49	0.026
427.69	0.025
427.90	0.025
428.10	0.025
428.31	0.025
428.51	0.025
428.71	0.025
428.92	0.025
429.12	0.025
429.33	0.025
429.53	0.025
429.74	0.025
429.94	0.025
430.15	0.025
430.35	0.026
430.56	0.026
430.76	0.026
430.96	0.026
431.17	0.026
431.37	0.026
431.58	0.026
431.78	0.026
431.99	0.027
432.19	0.027
432.40	0.027
432.60	0.026
432.80	0.027
433.01	0.026
433.21	0.027
433.42	0.026
433.62	0.026
433.83	0.026
434.03	0.026
434.23	0.026
434.44	0.026
434.64	0.026
434.85	0.026
435.05	0.026
435.26	0.026
435.46	0.026
435.66	0.026
435.87	0.026
436.07	0.025
436.28	0.025
436.48	0.025
436.69	0.025
436.89	0.025
437.09	0.025
437.30	0.025
437.50	0.025
437.71	0.026
437.91	0.026
438.11	0.026
438.32	0.026
438.52	0.026
438.73	0.026
438.93	0.026
439.13	0.026
439.34	0.026
439.54	0.026
439.75	0.026
439.95	0.026
440.15	0.026
440.36	0.026
440.56	0.026
440.77	0.026
440.97	0.026
441.17	0.026
441.38	0.025
441.58	0.025
441.79	0.025
441.99	0.025
442.19	0.025
442.40	0.025
442.60	0.025
442.81	0.025
443.01	0.025
443.21	0.025
443.42	0.025
443.62	0.025
443.82	0.025
444.03	0.025
444.23	0.025
444.44	0.025
444.64	0.025
444.84	0.025
445.05	0.025
445.25	0.025
445.45	0.025
445.66	0.025
445.86	0.025
446.06	0.025
446.27	0.025
446.47	0.025
446.68	0.025
446.88	0.025
447.08	0.025
447.29	0.025
447.49	0.025
447.69	0.025
447.90	0.025
448.10	0.025
448.30	0.025
448.51	0.025
448.71	0.025
448.91	0.025
449.12	0.025
449.32	0.025
449.52	0.025
449.73	0.025
449.93	0.025
450.14	0.025
450.34	0.025
450.54	0.025
450.75	0.025
450.95	0.025
451.15	0.025
451.36	0.025
451.56	0.025
451.76	0.025
451.97	0.025
452.17	0.025
452.37	0.025
452.58	0.025
452.78	0.025
452.98	0.025
453.19	0.025
453.39	0.025
453.59	0.025
453.79	0.025
454.00	0.025
454.20	0.025
454.40	0.025
454.61	0.025
454.81	0.025
455.01	0.025
455.22	0.025
455.42	0.025
455.62	0.025
455.83	0.024
456.03	0.025
456.23	0.025
456.44	0.025
456.64	0.025
456.84	0.025
457.04	0.025
457.25	0.025
457.45	0.025
457.65	0.025
457.86	0.025
458.06	0.025
458.26	0.025
458.47	0.025
458.67	0.025
458.87	0.025
459.07	0.025
459.28	0.025
459.48	0.025
459.68	0.025
459.89	0.025
460.09	0.025
460.29	0.025
460.49	0.025
460.70	0.024
460.90	0.025
461.10	0.025
461.31	0.025
461.51	0.025
461.71	0.025
461.91	0.025
462.12	0.025
462.32	0.025
462.52	0.025
462.72	0.025
462.93	0.025
463.13	0.024
463.33	0.024
463.53	0.024
463.74	0.024
463.94	0.024
464.14	0.024
464.35	0.024
464.55	0.024
464.75	0.024
464.95	0.024
465.16	0.024
465.36	0.024
465.56	0.024
465.76	0.024
465.97	0.024
466.17	0.024
466.37	0.024
466.57	0.024
466.78	0.024
466.98	0.024
467.18	0.025
467.38	0.025
467.59	0.025
467.79	0.025
467.99	0.025
468.19	0.025
468.39	0.025
468.60	0.025
468.80	0.025
469.00	0.025
469.20	0.025
469.41	0.025
469.61	0.025
469.81	0.024
470.01	0.024
470.22	0.024
470.42	0.024
470.62	0.024
470.82	0.024
471.02	0.024
471.23	0.024
471.43	0.024
471.63	0.024
471.83	0.024
472.04	0.024
472.24	0.024
472.44	0.023
472.64	0.023
472.84	0.023
473.05	0.023
473.25	0.023
473.45	0.023
473.65	0.023
473.85	0.023
474.06	0.023
474.26	0.023
474.46	0.023
474.66	0.023
474.86	0.023
475.07	0.024
475.27	0.024
475.47	0.024
475.67	0.024
475.87	0.024
476.08	0.024
476.28	0.024
476.48	0.024
476.68	0.024
476.88	0.024
477.09	0.024
477.29	0.024
477.49	0.024
477.69	0.024
477.89	0.024
478.09	0.024
478.30	0.023
478.50	0.023
478.70	0.023
478.90	0.023
479.10	0.023
479.31	0.023
479.51	0.023
479.71	0.023
479.91	0.023
480.11	0.023
480.31	0.023
480.52	0.023
480.72	0.023
480.92	0.023
481.12	0.023
481.32	0.023
481.52	0.023
481.72	0.023
481.93	0.023
482.13	0.023
482.33	0.023
482.53	0.023
482.73	0.022
482.93	0.022
483.14	0.022
483.34	0.022
483.54	0.022
483.74	0.022
483.94	0.022
484.14	0.022
484.34	0.023
484.55	0.023
484.75	0.023
484.95	0.023
485.15	0.023
485.35	0.023
485.55	0.023
485.75	0.023
485.96	0.023
486.16	0.023
486.36	0.023
486.56	0.023
486.76	0.023
486.96	0.023
487.16	0.024
487.36	0.024
487.57	0.024
487.77	0.024
487.97	0.024
488.17	0.024
488.37	0.024
488.57	0.024
488.77	0.024
488.97	0.024
489.18	0.024
489.38	0.024
489.58	0.024
489.78	0.024
489.98	0.024
490.18	0.024
490.38	0.024
490.58	0.024
490.78	0.024
490.98	0.024
491.19	0.024
491.39	0.024
491.59	0.024
491.79	0.024
491.99	0.023
492.19	0.023
492.39	0.023
492.59	0.023
492.79	0.023
492.99	0.023
493.20	0.023
493.40	0.023
493.60	0.023
493.80	0.023
494.00	0.023
494.20	0.023
494.40	0.023
494.60	0.023
494.80	0.023
495.00	0.023
495.20	0.023
495.40	0.023
495.61	0.023
495.81	0.023
496.01	0.023
496.21	0.023
496.41	0.023
496.61	0.024
496.81	0.024
497.01	0.024
497.21	0.024
497.41	0.024
497.61	0.024
497.81	0.024
498.01	0.024
498.21	0.024
498.41	0.024
498.61	0.024
498.82	0.024
499.02	0.024
499.22	0.024
499.42	0.024
499.62	0.024
499.82	0.024
500.02	0.024
500.22	0.024
500.42	0.023
500.62	0.023
500.82	0.023
501.02	0.023
501.22	0.023
501.42	0.023
501.62	0.023
501.82	0.023
502.02	0.023
502.22	0.023
502.42	0.023
502.62	0.023
502.82	0.023
503.02	0.023
503.22	0.023
503.42	0.023
503.63	0.023
503.83	0.023
504.03	0.024
504.23	0.024
504.43	0.024
504.63	0.024
504.83	0.024
505.03	0.024
505.23	0.024
505.43	0.024
505.63	0.024
505.83	0.024
506.03	0.024
506.23	0.024
506.43	0.024
506.63	0.024
506.83	0.024
507.03	0.024
507.23	0.024
507.43	0.024
507.63	0.024
507.83	0.024
508.03	0.024
508.23	0.024
508.43	0.024
508.63	0.024
508.83	0.024
509.03	0.024
509.23	0.024
509.43	0.024
509.63	0.024
509.83	0.024
510.03	0.024
510.23	0.024
510.43	0.024
510.63	0.024
510.83	0.024
511.03	0.024
511.23	0.024
511.43	0.024
511.63	0.024
511.83	0.024
512.03	0.024
512.22	0.024
512.42	0.024
512.62	0.024
512.82	0.024
513.02	0.024
513.22	0.024
513.42	0.024
513.62	0.024
513.82	0.024
514.02	0.024
514.22	0.024
514.42	0.024
514.62	0.024
514.82	0.024
515.02	0.024
515.22	0.024
515.42	0.024
515.62	0.024
515.82	0.024
516.02	0.024
516.22	0.024
516.42	0.024
516.62	0.024
516.82	0.024
517.01	0.024
517.21	0.024
517.41	0.024
517.61	0.024
517.81	0.024
518.01	0.024
518.21	0.024
518.41	0.024
518.61	0.024
518.81	0.024
519.01	0.024
519.21	0.024
519.41	0.024
519.61	0.024
519.81	0.024
520.00	0.024
520.20	0.024
520.40	0.024
520.60	0.024
520.80	0.024
521.00	0.024
521.20	0.024
521.40	0.024
521.60	0.024
521.80	0.024
522.00	0.024
522.20	0.024
522.39	0.024
522.59	0.024
522.79	0.024
522.99	0.024
523.19	0.024
523.39	0.024
523.59	0.024
523.79	0.024
523.99	0.024
524.19	0.024
524.38	0.024
524.58	0.024
524.78	0.024
524.98	0.024
525.18	0.024
525.38	0.024
525.58	0.024
525.78	0.024
525.98	0.024
526.18	0.024
526.37	0.024
526.57	0.024
526.77	0.024
526.97	0.024
527.17	0.024
527.37	0.023
527.57	0.023
527.77	0.023
527.96	0.023
528.16	0.023
528.36	0.023
528.56	0.023
528.76	0.024
528.96	0.024
529.16	0.024
529.36	0.024
529.55	0.024
529.75	0.024
529.95	0.024
530.15	0.024
530.35	0.024
530.55	0.024
530.75	0.024
530.94	0.024
531.14	0.024
531.34	0.024
531.54	0.024
531.74	0.024
531.94	0.024
532.13	0.024
532.33	0.023
532.53	0.023
532.73	0.023
532.93	0.023
533.13	0.023
533.33	0.023
533.52	0.023
533.72	0.023
533.92	0.023
534.12	0.023
534.32	0.023
534.52	0.023
534.71	0.023
534.91	0.023
535.11	0.024
535.31	0.024
535.51	0.023
535.71	0.023
535.90	0.024
536.10	0.024
536.30	0.024
536.50	0.024
536.70	0.024
536.89	0.024
537.09	0.024
537.29	0.024
537.49	0.023
537.69	0.023
537.89	0.023
538.08	0.023
538.28	0.023
538.48	0.023
538.68	0.023
538.88	0.023
539.07	0.023
539.27	0.023
539.47	0.023
539.67	0.024
539.87	0.024
540.06	0.024
540.26	0.024
540.46	0.024
540.66	0.024
540.86	0.024
541.05	0.024
541.25	0.024
541.45	0.024
541.65	0.024
541.84	0.024
542.04	0.024
542.24	0.024
542.44	0.024
542.64	0.023
542.83	0.023
543.03	0.023
543.23	0.023
543.43	0.023
543.62	0.023
543.82	0.023
544.02	0.023
544.22	0.023
544.42	0.023
544.61	0.023
544.81	0.023
545.01	0.023
545.21	0.023
545.40	0.023
545.60	0.023
545.80	0.023
546.00	0.023
546.19	0.023
546.39	0.023
546.59	0.023
546.79	0.023
546.98	0.024
547.18	0.024
547.38	0.024
547.58	0.024
547.77	0.024
547.97	0.024
548.17	0.024
548.37	0.024
548.56	0.024
548.76	0.024
548.96	0.024
549.16	0.024
549.35	0.024
549.55	0.024
549.75	0.024
549.95	0.024
550.14	0.024
550.34	0.024
550.54	0.024
550.73	0.024
550.93	0.024
551.13	0.024
551.33	0.023
551.52	0.023
551.72	0.023
551.92	0.023
552.12	0.023
552.31	0.023
552.51	0.023
552.71	0.023
552.90	0.023
553.10	0.023
553.30	0.023
553.50	0.023
553.69	0.023
553.89	0.023
554.09	0.024
554.28	0.024
554.48	0.024
554.68	0.024
554.87	0.024
555.07	0.024
555.27	0.024
555.47	0.024
555.66	0.024
555.86	0.024
556.06	0.024
556.25	0.024
556.45	0.025
556.65	0.024
556.84	0.025
557.04	0.025
557.24	0.025
557.43	0.025
557.63	0.024
557.83	0.024
558.02	0.024
558.22	0.024
558.42	0.024
558.61	0.023
558.81	0.023
559.01	0.023
559.21	0.023
559.40	0.023
559.60	0.023
559.80	0.023
559.99	0.023
560.19	0.023
560.39	0.023
560.58	0.023
560.78	0.023
560.97	0.023
561.17	0.023
561.37	0.023
561.56	0.023
561.76	0.023
561.96	0.023
562.15	0.024
562.35	0.024
562.55	0.024
562.74	0.024
562.94	0.024
563.14	0.024
563.33	0.024
563.53	0.024
563.73	0.024
563.92	0.024
564.12	0.024
564.31	0.024
564.51	0.024
564.71	0.024
564.90	0.024
565.10	0.024
565.30	0.024
565.49	0.024
565.69	0.023
565.89	0.023
566.08	0.023
566.28	0.023
566.47	0.023
566.67	0.023
566.87	0.022
567.06	0.022
567.26	0.022
567.46	0.022
567.65	0.022
567.85	0.022
568.04	0.021
568.24	0.021
568.44	0.021
568.63	0.021
568.83	0.021
569.02	0.021
569.22	0.021
569.42	0.021
569.61	0.021
569.81	0.021
570.00	0.021
570.20	0.021
570.40	0.021
570.59	0.021
570.79	0.021
570.98	0.021
571.18	0.021
571.38	0.021
571.57	0.021
571.77	0.021
571.96	0.021
572.16	0.021
572.35	0.022
572.55	0.022
572.75	0.022
572.94	0.022
573.14	0.022
573.33	0.023
573.53	0.023
573.73	0.023
573.92	0.023
574.12	0.023
574.31	0.023
574.51	0.023
574.70	0.022
574.90	0.020
575.09	0.018
575.29	0.016
575.49	0.014
575.68	0.012
575.88	0.010
576.07	0.008
576.27	0.006
576.46	0.004
576.66	0.002
576.86	0.001
577.05	-0.000
577.25	-0.000
577.44	-0.000
577.64	-0.000
577.83	-0.000
578.03	-0.000
578.22	-0.000
578.42	-0.000
578.61	-0.000
578.81	-0.000
579.00	-0.000
579.20	-0.000
579.40	-0.000
579.59	-0.000
579.79	-0.000
579.98	-0.000
580.18	-0.000
580.37	-0.000
580.57	-0.000
580.76	-0.000
580.96	-0.000
581.15	-0.000
581.35	-0.000
581.54	-0.000
581.74	-0.000
581.93	-0.000
582.13	-0.000
582.32	-0.000
582.52	-0.000
582.71	-0.000
582.91	-0.000
583.10	-0.000
583.30	-0.000
583.49	0.001
583.69	0.001
583.88	0.002
584.08	0.003
584.27	0.005
584.47	0.006
584.66	0.006
584.86	0.007
585.05	0.008
585.25	0.008
585.44	0.008
585.64	0.008
585.83	0.007
586.03	0.007
586.22	0.008
586.42	0.009
586.61	0.010
586.81	0.012
587.00	0.013
587.20	0.015
587.39	0.017
587.59	0.019
587.78	0.021
587.98	0.023
588.17	0.024
588.37	0.025
588.56	0.024
588.76	0.024
588.95	0.024
589.15	0.024
589.34	0.023
589.54	0.023
589.73	0.023
589.92	0.023
590.12	0.022
590.31	0.022
590.51	0.022
590.70	0.022
590.90	0.021
591.09	0.021
591.29	0.021
591.48	0.021
591.68	0.021
591.87	0.021
592.06	0.022
592.26	0.022
592.45	0.022
592.65	0.022
592.84	0.022
593.04	0.022
593.23	0.022
593.43	0.022
593.62	0.023
593.81	0.023
594.01	0.023
594.20	0.023
594.40	0.024
594.59	0.024
594.79	0.024
594.98	0.024
595.17	0.024
595.37	0.024
595.56	0.023
595.76	0.023
595.95	0.023
596.14	0.022
596.34	0.022
596.53	0.021
596.73	0.021
596.92	0.021
597.12	0.020
597.31	0.020
597.50	0.020
597.70	0.020
597.89	0.020
598.09	0.020
598.28	0.020
598.47	0.020
598.67	0.021
598.86	0.021
599.06	0.021
599.25	0.022
599.44	0.022
599.64	0.022
599.83	0.023
600.03	0.023
600.22	0.023
600.41	0.023
600.61	0.023
600.80	0.024
601.00	0.024
601.19	0.024
601.38	0.024
601.58	0.024
601.77	0.024
601.96	0.024
602.16	0.023
602.35	0.023
602.55	0.023
602.74	0.023
602.93	0.022
603.13	0.022
603.32	0.022
603.51	0.022
603.71	0.021
603.90	0.021
604.09	0.021
604.29	0.021
604.48	0.020
604.68	0.020
604.87	0.021
605.06	0.021
605.26	0.021
605.45	0.021
605.64	0.021
605.84	0.021
606.03	0.021
606.22	0.021
606.42	0.022
606.61	0.022
606.80	0.022
607.00	0.022
607.19	0.022
607.38	0.022
607.58	0.023
607.77	0.023
607.96	0.023
608.16	0.023
608.35	0.023
608.54	0.023
608.74	0.024
608.93	0.024
609.12	0.024
609.32	0.024
609.51	0.024
609.70	0.024
609.90	0.024
610.09	0.024
610.28	0.024
610.48	0.023
610.67	0.023
610.86	0.023
611.06	0.023
611.25	0.023
611.44	0.022
611.64	0.022
611.83	0.022
612.02	0.022
612.21	0.022
612.41	0.022
612.60	0.022
612.79	0.022
612.99	0.022
613.18	0.022
613.37	0.022
613.57	0.022
613.76	0.022
613.95	0.022
614.14	0.022
614.34	0.023
614.53	0.023
614.72	0.023
614.92	0.023
615.11	0.023
615.30	0.023
615.49	0.023
615.69	0.023
615.88	0.023
616.07	0.024
616.26	0.024
616.46	0.024
616.65	0.024
616.84	0.024
617.04	0.024
617.23	0.024
617.42	0.024
617.61	0.024
617.81	0.024
618.00	0.024
618.19	0.024
618.38	0.024
618.58	0.024
618.77	0.024
618.96	0.024
619.15	0.023
619.35	0.024
619.54	0.024
619.73	0.024
619.92	0.023
620.12	0.023
620.31	0.023
620.50	0.023
620.69	0.023
620.89	0.023
621.08	0.023
621.27	0.023
621.46	0.023
621.66	0.023
621.85	0.023
622.04	0.023
622.23	0.023
622.43	0.023
622.62	0.023
622.81	0.023
623.00	0.023
623.19	0.023
623.39	0.023
623.58	0.023
623.77	0.023
623.96	0.023
624.16	0.023
624.35	0.023
624.54	0.023
624.73	0.023
624.92	0.023
625.12	0.023
625.31	0.023
625.50	0.023
625.69	0.023
625.88	0.023
626.08	0.024
626.27	0.024
626.46	0.024
626.65	0.024
626.84	0.024
627.04	0.024
627.23	0.024
627.42	0.024
627.61	0.024
627.80	0.024
628.00	0.024
628.19	0.024
628.38	0.024
628.57	0.024
628.76	0.024
628.96	0.024
629.15	0.024
629.34	0.024
629.53	0.024
629.72	0.024
629.91	0.024
630.11	0.024
630.30	0.024
630.49	0.024
630.68	0.024
630.87	0.025
631.06	0.025
631.26	0.025
631.45	0.025
631.64	0.025
631.83	0.025
632.02	0.025
632.21	0.025
632.41	0.025
632.60	0.025
632.79	0.025
632.98	0.025
633.17	0.024
633.36	0.024
633.55	0.024
633.75	0.024
633.94	0.024
634.13	0.024
634.32	0.024
634.51	0.024
634.70	0.024
634.89	0.024
635.09	0.024
635.28	0.024
635.47	0.025
635.66	0.025
635.85	0.025
636.04	0.025
636.23	0.025
636.43	0.025
636.62	0.025
636.81	0.025
637.00	0.025
637.19	0.025
637.38	0.025
637.57	0.025
637.76	0.025
637.95	0.025
638.15	0.025
638.34	0.025
638.53	0.025
638.72	0.025
638.91	0.025
639.10	0.025
639.29	0.025
639.48	0.025
639.67	0.025
639.87	0.025
640.06	0.025
640.25	0.025
640.44	0.025
640.63	0.025
640.82	0.025
641.01	0.025
641.20	0.025
641.39	0.025
641.58	0.025
641.78	0.025
641.97	0.025
642.16	0.025
642.35	0.025
642.54	0.025
642.73	0.025
642.92	0.025
643.11	0.025
643.30	0.025
643.49	0.025
643.68	0.025
643.87	0.025
644.06	0.025
644.25	0.025
644.45	0.025
644.64	0.025
644.83	0.025
645.02	0.025
645.21	0.025
645.40	0.025
645.59	0.025
645.78	0.025
645.97	0.025
646.16	0.024
646.35	0.024
646.54	0.024
646.73	0.024
646.92	0.024
647.11	0.024
647.30	0.023
647.49	0.023
647.68	0.023
647.88	0.023
648.07	0.023
648.26	0.023
648.45	0.023
648.64	0.023
648.83	0.023
649.02	0.023
649.21	0.023
649.40	0.024
649.59	0.024
649.78	0.024
649.97	0.024
650.16	0.024
650.35	0.024
650.54	0.024
650.73	0.025
650.92	0.025
651.11	0.025
651.30	0.025
651.49	0.025
651.68	0.025
651.87	0.025
652.06	0.025
652.25	0.025
652.44	0.024
652.63	0.023
652.82	0.021
653.01	0.020
653.20	0.019
653.39	0.018
653.58	0.018
653.77	0.018
653.96	0.018
654.15	0.018
654.34	0.018
654.53	0.018
654.72	0.019
654.91	0.019
655.10	0.020
655.29	0.020
655.48	0.021
655.67	0.021
655.86	0.021
656.05	0.021
656.24	0.021
656.43	0.021
656.62	0.022
656.81	0.022
657.00	0.023
657.19	0.024
657.38	0.025
657.57	0.026
657.76	0.027
657.95	0.027
658.14	0.028
658.33	0.028
658.51	0.029
658.70	0.029
658.89	0.029
659.08	0.028
659.27	0.027
659.46	0.026
659.65	0.026
659.84	0.026
660.03	0.025
660.22	0.025
660.41	0.025
660.60	0.025
660.79	0.025
660.98	0.025
661.17	0.025
661.36	0.025
661.55	0.025
661.74	0.025
661.92	0.024
662.11	0.024
662.30	0.024
662.49	0.024
662.68	0.024
662.87	0.024
663.06	0.024
663.25	0.024
663.44	0.024
663.63	0.024
663.82	0.024
664.01	0.024
664.20	0.024
664.38	0.024
664.57	0.024
664.76	0.024
664.95	0.024
665.14	0.024
665.33	0.024
665.52	0.024
665.71	0.024
665.90	0.025
666.09	0.024
666.28	0.024
666.46	0.024
666.65	0.025
666.84	0.025
667.03	0.025
667.22	0.025
667.41	0.025
667.60	0.025
667.79	0.025
667.98	0.025
668.16	0.025
668.35	0.024
668.54	0.024
668.73	0.024
668.92	0.024
669.11	0.024
669.30	0.024
669.49	0.024
669.67	0.023
669.86	0.023
670.05	0.023
670.24	0.023
670.43	0.023
670.62	0.023
670.81	0.023
671.00	0.023
671.18	0.023
671.37	0.023
671.56	0.023
671.75	0.023
671.94	0.023
672.13	0.023
672.32	0.023
672.50	0.024
672.69	0.024
672.88	0.024
673.07	0.024
673.26	0.024
673.45	0.024
673.63	0.024
673.82	0.024
674.01	0.024
674.20	0.024
674.39	0.025
674.58	0.025
674.76	0.025
674.95	0.024
675.14	0.024
675.33	0.024
675.52	0.024
675.71	0.024
675.89	0.024
676.08	0.024
676.27	0.024
676.46	0.024
676.65	0.024
676.84	0.024
677.02	0.024
677.21	0.024
677.40	0.024
677.59	0.025
677.78	0.025
677.96	0.025
678.15	0.024
678.34	0.024
678.53	0.024
678.72	0.024
678.90	0.024
679.09	0.024
679.28	0.024
679.47	0.024
679.66	0.024
679.84	0.024
680.03	0.024
680.22	0.024
680.41	0.024
680.60	0.024
680.78	0.024
680.97	0.024
681.16	0.024
681.35	0.024
681.53	0.024
681.72	0.024
681.91	0.024
682.10	0.023
682.29	0.023
682.47	0.023
682.66	0.023
682.85	0.023
683.04	0.023
683.22	0.023
683.41	0.023
683.60	0.023
683.79	0.023
683.97	0.023
684.16	0.023
684.35	0.023
684.54	0.023
684.72	0.023
684.91	0.024
685.10	0.024
685.29	0.024
685.47	0.024
685.66	0.024
685.85	0.024
686.04	0.023
686.22	0.024
686.41	0.024
686.60	0.024
686.79	0.024
686.97	0.024
687.16	0.024
687.35	0.024
687.54	0.024
687.72	0.024
687.91	0.024
688.10	0.024
688.29	0.024
688.47	0.024
688.66	0.024
688.85	0.024
689.03	0.024
689.22	0.024
689.41	0.024
689.60	0.023
689.78	0.023
689.97	0.023
690.16	0.023
690.34	0.023
690.53	0.023
690.72	0.023
690.91	0.023
691.09	0.023
691.28	0.023
691.47	0.023
691.65	0.023
691.84	0.024
692.03	0.024
692.21	0.024
692.40	0.024
692.59	0.024
692.77	0.024
692.96	0.024
693.15	0.024
693.34	0.024
693.52	0.024
693.71	0.024
693.90	0.024
694.08	0.024
694.27	0.024
694.46	0.024
694.64	0.024
694.83	0.024
695.02	0.024
695.20	0.024
695.39	0.024
695.58	0.023
695.76	0.023
695.95	0.023
696.14	0.023
696.32	0.023
696.51	0.023
696.70	0.023
696.88	0.023
697.07	0.023
697.26	0.023
697.44	0.023
697.63	0.023
697.81	0.023
698.00	0.024
698.19	0.024
698.37	0.024
698.56	0.024
698.75	0.024
698.93	0.024
699.12	0.024
699.31	0.024
699.49	0.025
699.68	0.025
699.87	0.025
700.05	0.025
700.24	0.024
700.42	0.024
700.61	0.024
700.80	0.024
700.98	0.024
701.17	0.024
701.36	0.024
701.54	0.024
701.73	0.024
701.91	0.024
702.10	0.024
702.29	0.024
702.47	0.024
702.66	0.024
702.84	0.024
703.03	0.025
703.22	0.025
703.40	0.025
703.59	0.025
703.77	0.025
703.96	0.025
704.15	0.025
704.33	0.025
704.52	0.024
704.70	0.024
704.89	0.024
705.08	0.024
705.26	0.024
705.45	0.024
705.63	0.024
705.82	0.023
706.00	0.023
706.19	0.023
706.38	0.023
706.56	0.023
706.75	0.023
706.93	0.023
707.12	0.023
707.30	0.023
707.49	0.023
707.68	0.023
707.86	0.023
708.05	0.023
708.23	0.023
708.42	0.023
708.60	0.023
708.79	0.023
708.98	0.024
709.16	0.024
709.35	0.024
709.53	0.024
709.72	0.024
709.90	0.024
710.09	0.024
710.27	0.024
710.46	0.024
710.64	0.024
710.83	0.024
711.02	0.024
711.20	0.024
711.39	0.024
711.57	0.024
711.76	0.024
711.94	0.024
712.13	0.024
712.31	0.024
712.50	0.024
712.68	0.024
712.87	0.024
713.05	0.024
713.24	0.024
713.42	0.024
713.61	0.024
713.79	0.024
713.98	0.024
714.16	0.024
714.35	0.024
714.54	0.024
714.72	0.024
714.91	0.024
715.09	0.024
715.28	0.024
715.46	0.024
715.65	0.024
715.83	0.024
716.02	0.023
716.20	0.024
716.39	0.023
716.57	0.024
716.76	0.024
716.94	0.024
717.12	0.023
717.31	0.023
717.49	0.023
717.68	0.023
717.86	0.023
718.05	0.023
718.23	0.023
718.42	0.023
718.60	0.023
718.79	0.022
718.97	0.022
719.16	0.023
719.34	0.023
719.53	0.023
719.71	0.023
719.90	0.023
720.08	0.023
720.27	0.023
720.45	0.023
720.63	0.023
720.82	0.023
721.00	0.023
721.19	0.023
721.37	0.023
721.56	0.023
721.74	0.023
721.93	0.023
722.11	0.023
722.30	0.023
722.48	0.023
722.66	0.023
722.85	0.023
723.03	0.023
723.22	0.023
723.40	0.023
723.59	0.023
723.77	0.023
723.95	0.023
724.14	0.023
724.32	0.023
724.51	0.023
724.69	0.023
724.88	0.022
725.06	0.022
725.24	0.023
725.43	0.023
725.61	0.022
725.80	0.022
725.98	0.022
726.16	0.022
726.35	0.022
726.53	0.022
726.72	0.022
726.90	0.022
727.09	0.022
727.27	0.022
727.45	0.022
727.64	0.022
727.82	0.022
728.01	0.022
728.19	0.022
728.37	0.022
728.56	0.022
728.74	0.022
728.92	0.022
729.11	0.022
729.29	0.022
729.48	0.022
729.66	0.022
729.84	0.022
730.03	0.022
730.21	0.022
730.40	0.021
730.58	0.021
730.76	0.021
730.95	0.021
731.13	0.021
731.31	0.021
731.50	0.021
731.68	0.021
731.86	0.021
732.05	0.022
732.23	0.022
732.42	0.022
732.60	0.022
732.78	0.022
732.97	0.022
733.15	0.022
733.33	0.022
733.52	0.021
733.70	0.021
733.88	0.020
734.07	0.020
734.25	0.020
734.43	0.020
734.62	0.019
734.80	0.019
734.98	0.019
735.17	0.019
735.35	0.019
735.53	0.019
735.72	0.019
735.90	0.019
736.08	0.019
736.27	0.019
736.45	0.018
736.63	0.019
736.82	0.019
737.00	0.018
737.18	0.019
737.37	0.018
737.55	0.019
737.73	0.018
737.92	0.018
738.10	0.018
738.28	0.018
738.46	0.018
738.65	0.018
738.83	0.018
739.01	0.018
739.20	0.018
739.38	0.018
739.56	0.018
739.75	0.018
739.93	0.018
740.11	0.018
740.29	0.018
740.48	0.018
740.66	0.018
740.84	0.018
741.03	0.018
741.21	0.019
741.39	0.019
741.57	0.019
741.76	0.019
741.94	0.019
742.12	0.019
742.31	0.019
742.49	0.019
742.67	0.019
742.85	0.019
743.04	0.018
743.22	0.018
743.40	0.017
743.58	0.018
743.77	0.018
743.95	0.018
744.13	0.018
744.31	0.019
744.50	0.018
744.68	0.019
744.86	0.019
745.04	0.019
745.23	0.019
745.41	0.019
745.59	0.019
745.77	0.019
745.96	0.019
746.14	0.019
746.32	0.019
746.50	0.019
746.69	0.019
746.87	0.019
747.05	0.019
747.23	0.019
747.42	0.020
747.60	0.020
747.78	0.019
747.96	0.020
748.14	0.020
748.33	0.020
748.51	0.019
748.69	0.019
748.87	0.019
749.06	0.019
749.24	0.020
749.42	0.019
749.60	0.019
749.78	0.019
749.97	0.019
750.15	0.019
750.33	0.020
750.51	0.020
750.69	0.020
750.88	0.019
751.06	0.020
751.24	0.020
751.42	0.019
751.60	0.019
751.79	0.020
751.97	0.019
752.15	0.019
752.33	0.019
752.51	0.018
752.69	0.018
752.88	0.019
753.06	0.019
753.24	0.019
753.42	0.019
753.60	0.020
753.78	0.019
753.97	0.020
754.15	0.020
754.33	0.020
754.51	0.019
754.69	0.019
754.87	0.019
755.06	0.019
755.24	0.019
755.42	0.019
755.60	0.019
755.78	0.019
755.96	0.019
756.15	0.019
756.33	0.018
756.51	0.019
756.69	0.020
756.87	0.020
757.05	0.019
757.23	0.019
757.42	0.019
757.60	0.018
757.78	0.019
757.96	0.019
758.14	0.019
758.32	0.020
758.50	0.020
758.69	0.020
758.87	0.020
759.05	0.021
759.23	0.021
759.41	0.021
759.59	0.021
759.77	0.021
759.95	0.021
760.13	0.021
760.32	0.021
760.50	0.021
760.68	0.021
760.86	0.021
761.04	0.021
761.22	0.021
761.40	0.021
761.58	0.021
761.76	0.021
761.95	0.020
762.13	0.020
762.31	0.020
762.49	0.020
762.67	0.020
762.85	0.020
763.03	0.020
763.21	0.021
763.39	0.021
763.57	0.021
763.75	0.021
763.94	0.021
764.12	0.021
764.30	0.021
764.48	0.021
764.66	0.021
764.84	0.020
765.02	0.020
765.20	0.020
765.38	0.020
765.56	0.020
765.74	0.019
765.92	0.019
766.10	0.020
766.28	0.020
766.46	0.020
766.65	0.020
766.83	0.020
767.01	0.021
767.19	0.021
767.37	0.020
767.55	0.021
767.73	0.021
767.91	0.021
768.09	0.021
768.27	0.021
768.45	0.021
768.63	0.021
768.81	0.021
768.99	0.021
769.17	0.021
769.35	0.021
769.53	0.020
769.71	0.020
769.89	0.021
770.07	0.021
770.25	0.022
770.43	0.022
770.61	0.022
770.79	0.022
770.97	0.022
771.15	0.022
771.33	0.023
771.51	0.023
771.69	0.023
771.87	0.023
772.05	0.023
772.24	0.023
772.42	0.022
772.60	0.023
772.78	0.023
772.96	0.024
773.14	0.023
773.32	0.023
773.49	0.024
773.67	0.023
773.85	0.023
774.03	0.023
774.21	0.024
774.39	0.023
774.57	0.023
774.75	0.023
774.93	0.023
775.11	0.023
775.29	0.023
775.47	0.022
775.65	0.022
775.83	0.023
776.01	0.022
776.19	0.022
776.37	0.022
776.55	0.022
776.73	0.021
776.91	0.022
777.09	0.021
777.27	0.021
777.45	0.021
777.63	0.022
777.81	0.022
777.99	0.022
778.17	0.022
778.35	0.022
778.53	0.022
778.71	0.023
778.89	0.023
779.07	0.023
779.24	0.022
779.42	0.022
779.60	0.022
779.78	0.022
779.96	0.021
780.14	0.021
780.32	0.021
780.50	0.021
780.68	0.021
780.86	0.021
781.04	0.021
781.22	0.021
781.40	0.022
781.58	0.022
781.75	0.022
781.93	0.023
782.11	0.024
782.29	0.024
782.47	0.024
782.65	0.025
782.83	0.024
783.01	0.025
783.19	0.025
783.37	0.025
783.55	0.024
783.72	0.024
783.90	0.024
784.08	0.024
784.26	0.024
784.44	0.024
784.62	0.023
784.80	0.023
784.98	0.023
785.16	0.023
785.33	0.023
785.51	0.023
785.69	0.023
785.87	0.023
786.05	0.023
786.23	0.023
786.41	0.022
786.59	0.022
786.77	0.022
786.94	0.022
787.12	0.022
787.30	0.022
787.48	0.022
787.66	0.022
787.84	0.023
788.02	0.022
788.19	0.022
788.37	0.022
788.55	0.023
788.73	0.022
788.91	0.022
789.09	0.022
789.27	0.022
789.44	0.023
789.62	0.023
789.80	0.023
789.98	0.023
790.16	0.022
790.34	0.022
790.51	0.023
790.69	0.023
790.87	0.023
791.05	0.023
791.23	0.023
791.41	0.023
791.58	0.022
791.76	0.022
791.94	0.022
792.12	0.022
792.30	0.022
792.48	0.022
792.65	0.022
792.83	0.022
793.01	0.023
793.19	0.022
793.37	0.022
793.54	0.022
793.72	0.022
793.90	0.022
794.08	0.023
794.26	0.023
794.43	0.023
794.61	0.024
794.79	0.024
794.97	0.024
795.15	0.024
795.32	0.024
795.50	0.025
795.68	0.025
795.86	0.025
796.04	0.025
796.21	0.025
796.39	0.026
796.57	0.025
796.75	0.025
796.92	0.025
797.10	0.025
797.28	0.025
797.46	0.025
797.64	0.024
797.81	0.023
797.99	0.023
798.17	0.023
798.35	0.023
798.52	0.023
798.70	0.023
798.88	0.023
799.06	0.023
799.23	0.023
799.41	0.023
799.59	0.023
799.77	0.024
799.94	0.024
800.12	0.024
800.30	0.024
800.48	0.024
800.65	0.024
800.83	0.023
801.01	0.023
801.19	0.023
801.36	0.023
801.54	0.023
801.72	0.023
801.90	0.023
802.07	0.023
802.25	0.023
802.43	0.023
802.60	0.023
802.78	0.024
802.96	0.023
803.14	0.023
803.31	0.023
803.49	0.023
803.67	0.023
803.84	0.023
804.02	0.023
804.20	0.023
804.38	0.024
804.55	0.023
804.73	0.023
804.91	0.023
805.08	0.023
805.26	0.024
805.44	0.024
805.61	0.024
805.79	0.024
805.97	0.024
806.15	0.024
806.32	0.024
806.50	0.024
806.68	0.024
806.85	0.024
807.03	0.024
807.21	0.024
807.38	0.024
807.56	0.024
807.74	0.024
807.91	0.024
808.09	0.024
808.27	0.023
808.44	0.024
808.62	0.024
808.80	0.024
808.97	0.023
809.15	0.024
809.33	0.024
809.50	0.024
809.68	0.024
809.86	0.024
810.03	0.024
810.21	0.024
810.39	0.024
810.56	0.024
810.74	0.024
810.91	0.024
811.09	0.023
811.27	0.023
811.44	0.023
811.62	0.023
811.80	0.022
811.97	0.022
812.15	0.023
812.33	0.023
812.50	0.023
812.68	0.023
812.85	0.023
813.03	0.023
813.21	0.023
813.38	0.023
813.56	0.023
813.74	0.024
813.91	0.023
814.09	0.023
814.26	0.023
814.44	0.023
814.62	0.023
814.79	0.022
814.97	0.023
815.14	0.023
815.32	0.023
815.50	0.023
815.67	0.022
815.85	0.023
816.02	0.023
816.20	0.023
816.38	0.023
816.55	0.024
816.73	0.025
816.90	0.024
817.08	0.024
817.26	0.024
817.43	0.024
817.61	0.024
817.78	0.024
817.96	0.024
818.13	0.024
818.31	0.024
818.49	0.023
818.66	0.023
818.84	0.023
819.01	0.022
819.19	0.023
819.36	0.023
819.54	0.023
819.71	0.023
819.89	0.023
820.07	0.023
820.24	0.023
820.42	0.023
820.59	0.023
820.77	0.023
820.94	0.023
821.12	0.023
821.29	0.023
821.47	0.023
821.64	0.023
821.82	0.023
822.00	0.023
822.17	0.023
822.35	0.023
822.52	0.023
822.70	0.023
822.87	0.023
823.05	0.023
823.22	0.023
823.40	0.022
823.57	0.022
823.75	0.021
823.92	0.021
824.10	0.021
824.27	0.021
824.45	0.021
824.62	0.021
824.80	0.021
824.97	0.021
825.15	0.020
825.32	0.021
825.50	0.021
825.67	0.021
825.85	0.021
826.02	0.021
826.20	0.022
826.37	0.023
826.55	0.023
826.72	0.024
826.90	0.024
827.07	0.024
827.25	0.023
827.42	0.023
827.60	0.023
827.77	0.024
827.95	0.024
828.12	0.024
828.30	0.023
828.47	0.022
828.65	0.022
828.82	0.022
829.00	0.022
829.17	0.023
829.34	0.023
829.52	0.023
829.69	0.023
829.87	0.024
830.04	0.023
830.22	0.024
830.39	0.024
830.57	0.025
830.74	0.025
830.92	0.025
831.09	0.025
831.26	0.024
831.44	0.025
831.61	0.026
831.79	0.026
831.96	0.026
832.14	0.026
832.31	0.025
832.49	0.024
832.66	0.023
832.83	0.025
833.01	0.024
833.18	0.024
833.36	0.022
833.53	0.021
833.70	0.021
833.88	0.021
834.05	0.020
834.23	0.019
834.40	0.019
834.58	0.020
834.75	0.019
834.92	0.019
835.10	0.018
835.27	0.018
835.45	0.016
835.62	0.015
835.79	0.017
835.97	0.017
836.14	0.018
836.32	0.018
836.49	0.018
836.66	0.016
836.84	0.015
837.01	0.014
837.18	0.016
837.36	0.017
837.53	0.017
837.71	0.017
837.88	0.017
838.05	0.015
838.23	0.015
838.40	0.015
838.58	0.015
838.75	0.016
838.92	0.015
839.10	0.015
839.27	0.016
839.44	0.016
839.62	0.016
839.79	0.017
839.96	0.019
840.14	0.020
840.31	0.021
840.48	0.021
840.66	0.023
840.83	0.023
841.01	0.023
841.18	0.023
841.35	0.023
841.53	0.020
841.70	0.020
841.87	0.017
842.05	0.017
842.22	0.016
842.39	0.016
842.57	0.015
842.74	0.016
842.91	0.017
843.09	0.017
843.26	0.019
843.43	0.021
843.60	0.020
843.78	0.023
843.95	0.023
844.12	0.024
844.30	0.025
844.47	0.025
844.64	0.024
844.82	0.025
844.99	0.024
845.16	0.023
845.34	0.022
845.51	0.024
845.68	0.022
845.85	0.022
846.03	0.021
846.20	0.021
846.37	0.024
846.55	0.026
846.72	0.025
846.89	0.025
847.06	0.025
847.24	0.025
847.41	0.022
847.58	0.021
847.76	0.023
847.93	0.024
848.10	0.023
848.27	0.021
848.45	0.021
848.62	0.021
848.79	0.019
848.97	0.017
849.14	0.017
849.31	0.018
849.48	0.019
849.66	0.017
849.83	0.019
850.00	0.020
850.17	0.018
850.35	0.014
850.52	0.012
850.69	0.013
850.86	0.013
851.04	0.014
851.21	0.014
851.38	0.011
851.55	0.008
851.72	0.007
851.90	0.008
852.07	0.009
852.24	0.009
852.41	0.010
852.59	0.012
852.76	0.013
852.93	0.013
853.10	0.013
853.28	0.017
853.45	0.018
853.62	0.019
853.79	0.018
853.96	0.016
854.14	0.021
854.31	0.020
854.48	0.020
854.65	0.020
854.82	0.024
855.00	0.024
855.17	0.024
855.34	0.025
855.51	0.023
855.68	0.023
855.86	0.026
856.03	0.024
856.20	0.025
856.37	0.023
856.54	0.021
856.72	0.018
856.89	0.016
857.06	0.016
857.23	0.018
857.40	0.020
857.57	0.020
857.75	0.021
857.92	0.023
858.09	0.023
858.26	0.024
858.43	0.022
858.60	0.023
858.78	0.024
858.95	0.024
859.12	0.023
859.29	0.021
859.46	0.020
859.63	0.023
859.81	0.023
859.98	0.024
860.15	0.025
860.32	0.029
860.49	0.028
860.66	0.027
860.83	0.027
861.01	0.027
861.18	0.029
861.35	0.031
861.52	0.026
861.69	0.019
861.86	0.018
862.03	0.018
862.21	0.019
862.38	0.020
862.55	0.022
862.72	0.022
862.89	0.022
863.06	0.020
863.23	0.020
863.40	0.019
863.58	0.022
863.75	0.021
863.92	0.019
864.09	0.017
864.26	0.012
864.43	0.009
864.60	0.010
864.77	0.007
864.94	0.010
865.11	0.011
865.29	0.011
865.46	0.011
865.63	0.013
865.80	0.015
865.97	0.020
866.14	0.026
866.31	0.027
866.48	0.026
866.65	0.032
866.82	0.032
866.99	0.030
867.16	0.028
867.34	0.029
867.51	0.029
867.68	0.029
867.85	0.024
868.02	0.018
868.19	0.021
868.36	0.022
868.53	0.016
868.70	0.018
868.87	0.015
869.04	0.019
869.21	0.023
869.38	0.021
869.55	0.024
869.72	0.026
869.89	0.036
870.06	0.033
870.24	0.035
870.41	0.034
870.58	0.033
870.75	0.038
870.92	0.039
871.09	0.037
871.26	0.040
871.43	0.036
871.60	0.036
871.77	0.031
871.94	0.033
872.11	0.028
872.28	0.026
872.45	0.023
872.62	0.019
872.79	0.016
872.96	0.013
873.13	0.007
873.30	0.009
873.47	0.011
873.64	0.013
873.81	0.012
873.98	0.017
874.15	0.020
874.32	0.021
874.49	0.025
874.66	0.025
874.83	0.029
875.00	0.032
875.17	0.034
875.34	0.033
875.51	0.030
875.68	0.029
875.85	0.030
876.02	0.028
876.19	0.030
876.36	0.027
876.53	0.030
876.70	0.026
876.87	0.028
877.04	0.023
877.21	0.029
877.38	0.031
877.55	0.035
877.72	0.033
877.89	0.034
878.06	0.027
878.23	0.027
878.39	0.024
878.56	0.029
878.73	0.027
878.90	0.026
879.07	0.016
879.24	0.015
879.41	0.016
879.58	0.020
879.75	0.021
879.92	0.025
880.09	0.027
880.26	0.033
880.43	0.034
880.60	0.039
880.77	0.045
880.94	0.047
881.11	0.055
881.27	0.056
881.44	0.048
881.61	0.049
881.78	0.050
881.95	0.045
882.12	0.039
882.29	0.032
882.46	0.022
882.63	0.029
882.80	0.033
882.97	0.026
883.14	0.019
883.30	0.017
883.47	0.011
883.64	0.010
883.81	0.010
883.98	0.013
884.15	0.014
884.32	0.024
884.49	0.017
884.66	0.012
884.82	0.014
884.99	0.018
885.16	0.024
885.33	0.022
885.50	0.023
885.67	0.030
885.84	0.033
886.01	0.036
886.17	0.032
886.34	0.034
886.51	0.035
886.68	0.039
886.85	0.042
887.02	0.046
887.19	0.053
887.36	0.057
887.52	0.052
887.69	0.050
887.86	0.049
888.03	0.047
888.20	0.042
888.37	0.047
888.54	0.041
888.70	0.039
888.87	0.036
889.04	0.035
889.21	0.031
889.38	0.034
889.55	0.037
889.71	0.081
889.88	-0.031
890.05	-0.032
890.22	0.042
890.39	0.085
>>>>>End Processed Spectral Data<<<<<
