SpectraSuite Data File
++++++++++++++++++++++++++++++++++++
Date: Mon Jun 15 05:34:18 PDT 2015
User: introlabs
Dark Spectrum Present: Yes
Reference Spectrum Present: Yes
Number of Sampled Component Spectra: 1
Spectrometers: USB4H08886
Integration Time (usec): 99009 (USB4H08886)
Spectra Averaged: 20 (USB4H08886)
Boxcar Smoothing: 5 (USB4H08886)
Correct for Electrical Dark: Yes (USB4H08886)
Strobe/Lamp Enabled: No (USB4H08886)
Correct for Detector Non-linearity: Yes (USB4H08886)
Correct for Stray Light: Yes (USB4H08886)
Number of Pixels in Processed Spectrum: 3648
>>>>>Begin Processed Spectral Data<<<<<
178.14	-0.000
178.36	-0.000
178.57	-0.000
178.79	0.754
179.01	-0.000
179.22	0.369
179.44	0.256
179.65	0.367
179.87	0.338
180.08	0.719
180.30	0.747
180.52	1.162
180.73	0.974
180.95	-0.000
181.16	-0.211
181.38	-0.105
181.59	-0.095
181.81	-0.082
182.03	-0.054
182.24	-0.043
182.46	-0.034
182.67	-0.027
182.89	-0.028
183.10	-0.028
183.32	-0.031
183.54	-0.025
183.75	-0.020
183.97	-0.015
184.18	-0.017
184.40	-0.019
184.61	-0.026
184.83	-0.019
185.04	-0.019
185.26	-0.019
185.48	-0.015
185.69	-0.011
185.91	-0.022
186.12	-0.029
186.34	-0.035
186.55	-0.035
186.77	-0.031
186.98	-0.025
187.20	-0.028
187.42	-0.032
187.63	-0.032
187.85	-0.039
188.06	-0.035
188.28	-0.033
188.49	-0.020
188.71	-0.013
188.92	-0.011
189.14	-0.009
189.36	-0.007
189.57	-0.007
189.79	-0.007
190.00	-0.003
190.22	0.003
190.43	-0.001
190.65	0.004
190.86	-0.007
191.08	-0.015
191.29	-0.012
191.51	-0.006
191.72	-0.014
191.94	-0.006
192.16	0.002
192.37	-0.002
192.59	-0.006
192.80	-0.001
193.02	-0.005
193.23	-0.010
193.45	-0.003
193.66	-0.003
193.88	-0.017
194.09	-0.011
194.31	-0.019
194.52	-0.021
194.74	-0.020
194.95	-0.011
195.17	-0.014
195.38	-0.006
195.60	-0.000
195.81	-0.005
196.03	-0.006
196.25	-0.002
196.46	-0.001
196.68	0.002
196.89	-0.005
197.11	0.000
197.32	-0.010
197.54	-0.013
197.75	-0.020
197.97	-0.022
198.18	-0.020
198.40	-0.017
198.61	-0.024
198.83	-0.019
199.04	-0.026
199.26	-0.019
199.47	-0.025
199.69	-0.028
199.90	-0.026
200.12	-0.024
200.33	-0.022
200.55	-0.024
200.76	-0.034
200.98	-0.026
201.19	-0.023
201.41	-0.013
201.62	-0.015
201.84	-0.013
202.05	-0.005
202.27	-0.008
202.48	-0.011
202.70	-0.003
202.91	-0.004
203.13	0.002
203.34	0.003
203.56	-0.005
203.77	-0.014
203.99	-0.013
204.20	-0.014
204.42	-0.020
204.63	-0.020
204.85	-0.019
205.06	-0.028
205.28	-0.020
205.49	-0.024
205.71	-0.025
205.92	-0.022
206.14	-0.018
206.35	-0.021
206.56	-0.020
206.78	-0.010
206.99	-0.006
207.21	-0.008
207.42	-0.004
207.64	-0.014
207.85	-0.009
208.07	-0.007
208.28	-0.013
208.50	-0.014
208.71	-0.012
208.93	-0.010
209.14	-0.019
209.36	-0.022
209.57	-0.020
209.79	-0.025
210.00	-0.017
210.22	-0.017
210.43	-0.020
210.64	-0.018
210.86	-0.018
211.07	-0.020
211.29	-0.018
211.50	-0.017
211.72	-0.012
211.93	-0.013
212.15	-0.013
212.36	-0.018
212.58	-0.015
212.79	-0.014
213.01	-0.011
213.22	-0.007
213.43	-0.009
213.65	-0.009
213.86	-0.010
214.08	-0.010
214.29	-0.008
214.51	-0.009
214.72	-0.006
214.94	-0.011
215.15	-0.011
215.36	-0.015
215.58	-0.018
215.79	-0.011
216.01	-0.016
216.22	-0.010
216.44	-0.017
216.65	-0.015
216.87	-0.011
217.08	-0.012
217.29	-0.014
217.51	-0.014
217.72	-0.011
217.94	-0.015
218.15	-0.014
218.37	-0.009
218.58	-0.006
218.80	-0.002
219.01	-0.008
219.22	-0.002
219.44	-0.004
219.65	-0.004
219.87	-0.006
220.08	-0.009
220.30	0.001
220.51	-0.001
220.72	-0.005
220.94	-0.007
221.15	-0.009
221.37	-0.006
221.58	-0.010
221.79	-0.007
222.01	-0.006
222.22	-0.007
222.44	-0.007
222.65	-0.012
222.87	-0.015
223.08	-0.012
223.29	-0.015
223.51	-0.018
223.72	-0.021
223.94	-0.022
224.15	-0.026
224.36	-0.025
224.58	-0.026
224.79	-0.023
225.01	-0.029
225.22	-0.026
225.44	-0.036
225.65	-0.039
225.86	-0.035
226.08	-0.033
226.29	-0.033
226.51	-0.030
226.72	-0.033
226.93	-0.033
227.15	-0.036
227.36	-0.032
227.58	-0.032
227.79	-0.026
228.00	-0.020
228.22	-0.020
228.43	-0.020
228.65	-0.024
228.86	-0.027
229.07	-0.023
229.29	-0.019
229.50	-0.018
229.72	-0.017
229.93	-0.021
230.14	-0.028
230.36	-0.031
230.57	-0.031
230.78	-0.030
231.00	-0.031
231.21	-0.028
231.43	-0.035
231.64	-0.039
231.85	-0.039
232.07	-0.039
232.28	-0.036
232.50	-0.030
232.71	-0.032
232.92	-0.032
233.14	-0.031
233.35	-0.032
233.56	-0.035
233.78	-0.034
233.99	-0.035
234.21	-0.037
234.42	-0.040
234.63	-0.039
234.85	-0.042
235.06	-0.041
235.27	-0.044
235.49	-0.045
235.70	-0.045
235.91	-0.043
236.13	-0.042
236.34	-0.040
236.56	-0.040
236.77	-0.039
236.98	-0.041
237.20	-0.042
237.41	-0.042
237.62	-0.040
237.84	-0.041
238.05	-0.041
238.26	-0.041
238.48	-0.042
238.69	-0.042
238.91	-0.043
239.12	-0.043
239.33	-0.042
239.55	-0.041
239.76	-0.039
239.97	-0.040
240.19	-0.040
240.40	-0.039
240.61	-0.039
240.83	-0.039
241.04	-0.040
241.25	-0.040
241.47	-0.040
241.68	-0.040
241.89	-0.040
242.11	-0.041
242.32	-0.041
242.53	-0.041
242.75	-0.041
242.96	-0.041
243.17	-0.041
243.39	-0.040
243.60	-0.039
243.81	-0.040
244.03	-0.040
244.24	-0.039
244.45	-0.040
244.67	-0.039
244.88	-0.039
245.09	-0.039
245.31	-0.039
245.52	-0.038
245.73	-0.039
245.95	-0.038
246.16	-0.038
246.37	-0.037
246.59	-0.037
246.80	-0.037
247.01	-0.037
247.23	-0.036
247.44	-0.036
247.65	-0.036
247.87	-0.036
248.08	-0.036
248.29	-0.036
248.51	-0.036
248.72	-0.036
248.93	-0.036
249.15	-0.037
249.36	-0.036
249.57	-0.036
249.78	-0.036
250.00	-0.036
250.21	-0.036
250.42	-0.035
250.64	-0.035
250.85	-0.035
251.06	-0.036
251.28	-0.035
251.49	-0.035
251.70	-0.034
251.92	-0.035
252.13	-0.034
252.34	-0.034
252.55	-0.034
252.77	-0.034
252.98	-0.034
253.19	-0.034
253.41	-0.034
253.62	-0.034
253.83	-0.034
254.05	-0.034
254.26	-0.034
254.47	-0.034
254.68	-0.034
254.90	-0.034
255.11	-0.034
255.32	-0.034
255.54	-0.034
255.75	-0.034
255.96	-0.034
256.17	-0.034
256.39	-0.034
256.60	-0.034
256.81	-0.034
257.03	-0.034
257.24	-0.034
257.45	-0.034
257.66	-0.034
257.88	-0.034
258.09	-0.034
258.30	-0.034
258.51	-0.034
258.73	-0.034
258.94	-0.034
259.15	-0.034
259.37	-0.034
259.58	-0.034
259.79	-0.034
260.00	-0.034
260.22	-0.034
260.43	-0.033
260.64	-0.033
260.85	-0.033
261.07	-0.033
261.28	-0.033
261.49	-0.033
261.71	-0.033
261.92	-0.033
262.13	-0.033
262.34	-0.033
262.56	-0.033
262.77	-0.034
262.98	-0.034
263.19	-0.034
263.41	-0.034
263.62	-0.034
263.83	-0.033
264.04	-0.033
264.26	-0.033
264.47	-0.033
264.68	-0.033
264.89	-0.033
265.11	-0.033
265.32	-0.033
265.53	-0.033
265.74	-0.033
265.96	-0.032
266.17	-0.032
266.38	-0.032
266.59	-0.032
266.81	-0.032
267.02	-0.032
267.23	-0.032
267.44	-0.032
267.65	-0.032
267.87	-0.032
268.08	-0.032
268.29	-0.032
268.50	-0.032
268.72	-0.033
268.93	-0.033
269.14	-0.033
269.35	-0.033
269.57	-0.033
269.78	-0.033
269.99	-0.033
270.20	-0.033
270.41	-0.033
270.63	-0.034
270.84	-0.033
271.05	-0.034
271.26	-0.034
271.48	-0.034
271.69	-0.033
271.90	-0.034
272.11	-0.033
272.32	-0.033
272.54	-0.033
272.75	-0.033
272.96	-0.033
273.17	-0.034
273.39	-0.033
273.60	-0.033
273.81	-0.033
274.02	-0.033
274.23	-0.033
274.45	-0.034
274.66	-0.034
274.87	-0.034
275.08	-0.034
275.29	-0.033
275.51	-0.033
275.72	-0.033
275.93	-0.033
276.14	-0.033
276.35	-0.033
276.57	-0.033
276.78	-0.033
276.99	-0.033
277.20	-0.033
277.41	-0.033
277.63	-0.033
277.84	-0.033
278.05	-0.033
278.26	-0.033
278.47	-0.033
278.69	-0.033
278.90	-0.033
279.11	-0.033
279.32	-0.033
279.53	-0.033
279.74	-0.033
279.96	-0.033
280.17	-0.033
280.38	-0.033
280.59	-0.033
280.80	-0.033
281.02	-0.033
281.23	-0.033
281.44	-0.033
281.65	-0.033
281.86	-0.033
282.07	-0.033
282.29	-0.032
282.50	-0.033
282.71	-0.033
282.92	-0.032
283.13	-0.032
283.35	-0.032
283.56	-0.032
283.77	-0.032
283.98	-0.032
284.19	-0.032
284.40	-0.032
284.62	-0.032
284.83	-0.032
285.04	-0.032
285.25	-0.032
285.46	-0.031
285.67	-0.031
285.88	-0.031
286.10	-0.031
286.31	-0.030
286.52	-0.030
286.73	-0.030
286.94	-0.030
287.15	-0.030
287.37	-0.030
287.58	-0.030
287.79	-0.030
288.00	-0.029
288.21	-0.029
288.42	-0.029
288.63	-0.030
288.85	-0.029
289.06	-0.029
289.27	-0.029
289.48	-0.029
289.69	-0.029
289.90	-0.029
290.11	-0.029
290.33	-0.029
290.54	-0.029
290.75	-0.029
290.96	-0.029
291.17	-0.029
291.38	-0.029
291.59	-0.029
291.81	-0.029
292.02	-0.029
292.23	-0.028
292.44	-0.028
292.65	-0.028
292.86	-0.028
293.07	-0.028
293.28	-0.028
293.50	-0.028
293.71	-0.028
293.92	-0.027
294.13	-0.027
294.34	-0.027
294.55	-0.027
294.76	-0.028
294.97	-0.028
295.19	-0.028
295.40	-0.028
295.61	-0.028
295.82	-0.027
296.03	-0.027
296.24	-0.027
296.45	-0.027
296.66	-0.027
296.87	-0.027
297.09	-0.027
297.30	-0.027
297.51	-0.027
297.72	-0.027
297.93	-0.027
298.14	-0.027
298.35	-0.027
298.56	-0.027
298.77	-0.027
298.99	-0.027
299.20	-0.027
299.41	-0.027
299.62	-0.027
299.83	-0.027
300.04	-0.027
300.25	-0.027
300.46	-0.027
300.67	-0.027
300.88	-0.027
301.10	-0.027
301.31	-0.027
301.52	-0.027
301.73	-0.027
301.94	-0.027
302.15	-0.027
302.36	-0.027
302.57	-0.027
302.78	-0.026
302.99	-0.026
303.20	-0.026
303.41	-0.026
303.63	-0.026
303.84	-0.026
304.05	-0.026
304.26	-0.026
304.47	-0.026
304.68	-0.026
304.89	-0.026
305.10	-0.026
305.31	-0.026
305.52	-0.026
305.73	-0.026
305.94	-0.026
306.15	-0.026
306.37	-0.026
306.58	-0.026
306.79	-0.026
307.00	-0.026
307.21	-0.026
307.42	-0.026
307.63	-0.026
307.84	-0.026
308.05	-0.026
308.26	-0.026
308.47	-0.026
308.68	-0.026
308.89	-0.026
309.10	-0.026
309.31	-0.026
309.52	-0.026
309.73	-0.026
309.95	-0.026
310.16	-0.026
310.37	-0.026
310.58	-0.026
310.79	-0.026
311.00	-0.026
311.21	-0.026
311.42	-0.026
311.63	-0.026
311.84	-0.026
312.05	-0.026
312.26	-0.026
312.47	-0.026
312.68	-0.026
312.89	-0.025
313.10	-0.026
313.31	-0.025
313.52	-0.025
313.73	-0.025
313.94	-0.026
314.15	-0.026
314.36	-0.025
314.57	-0.026
314.78	-0.026
314.99	-0.026
315.21	-0.026
315.42	-0.025
315.63	-0.026
315.84	-0.026
316.05	-0.025
316.26	-0.025
316.47	-0.025
316.68	-0.025
316.89	-0.025
317.10	-0.025
317.31	-0.025
317.52	-0.025
317.73	-0.025
317.94	-0.025
318.15	-0.025
318.36	-0.025
318.57	-0.025
318.78	-0.025
318.99	-0.025
319.20	-0.025
319.41	-0.025
319.62	-0.025
319.83	-0.025
320.04	-0.025
320.25	-0.025
320.46	-0.025
320.67	-0.025
320.88	-0.025
321.09	-0.025
321.30	-0.025
321.51	-0.025
321.72	-0.025
321.93	-0.025
322.14	-0.025
322.35	-0.025
322.56	-0.025
322.77	-0.025
322.98	-0.025
323.19	-0.025
323.40	-0.025
323.61	-0.026
323.82	-0.025
324.03	-0.025
324.24	-0.025
324.45	-0.025
324.66	-0.025
324.87	-0.025
325.08	-0.025
325.29	-0.025
325.50	-0.025
325.71	-0.025
325.92	-0.025
326.13	-0.025
326.34	-0.025
326.55	-0.025
326.76	-0.025
326.97	-0.025
327.18	-0.025
327.39	-0.025
327.60	-0.025
327.80	-0.025
328.01	-0.025
328.22	-0.025
328.43	-0.025
328.64	-0.025
328.85	-0.025
329.06	-0.025
329.27	-0.025
329.48	-0.025
329.69	-0.025
329.90	-0.025
330.11	-0.025
330.32	-0.025
330.53	-0.025
330.74	-0.025
330.95	-0.025
331.16	-0.025
331.37	-0.025
331.58	-0.025
331.79	-0.025
332.00	-0.025
332.21	-0.025
332.42	-0.025
332.63	-0.025
332.83	-0.025
333.04	-0.025
333.25	-0.025
333.46	-0.025
333.67	-0.025
333.88	-0.025
334.09	-0.025
334.30	-0.025
334.51	-0.025
334.72	-0.025
334.93	-0.025
335.14	-0.025
335.35	-0.025
335.56	-0.025
335.77	-0.025
335.98	-0.025
336.18	-0.025
336.39	-0.025
336.60	-0.025
336.81	-0.025
337.02	-0.025
337.23	-0.025
337.44	-0.025
337.65	-0.025
337.86	-0.025
338.07	-0.025
338.28	-0.025
338.49	-0.025
338.70	-0.025
338.91	-0.025
339.11	-0.025
339.32	-0.025
339.53	-0.025
339.74	-0.025
339.95	-0.025
340.16	-0.025
340.37	-0.025
340.58	-0.025
340.79	-0.025
341.00	-0.025
341.21	-0.025
341.41	-0.025
341.62	-0.025
341.83	-0.025
342.04	-0.025
342.25	-0.025
342.46	-0.024
342.67	-0.024
342.88	-0.024
343.09	-0.024
343.30	-0.024
343.50	-0.024
343.71	-0.023
343.92	-0.023
344.13	-0.023
344.34	-0.023
344.55	-0.023
344.76	-0.023
344.97	-0.022
345.18	-0.022
345.38	-0.022
345.59	-0.022
345.80	-0.022
346.01	-0.022
346.22	-0.021
346.43	-0.021
346.64	-0.021
346.85	-0.021
347.06	-0.020
347.26	-0.021
347.47	-0.020
347.68	-0.020
347.89	-0.020
348.10	-0.020
348.31	-0.020
348.52	-0.020
348.73	-0.019
348.93	-0.019
349.14	-0.018
349.35	-0.018
349.56	-0.018
349.77	-0.018
349.98	-0.017
350.19	-0.017
350.39	-0.017
350.60	-0.016
350.81	-0.016
351.02	-0.016
351.23	-0.016
351.44	-0.016
351.65	-0.016
351.86	-0.015
352.06	-0.015
352.27	-0.014
352.48	-0.014
352.69	-0.014
352.90	-0.014
353.11	-0.013
353.31	-0.013
353.52	-0.013
353.73	-0.013
353.94	-0.013
354.15	-0.013
354.36	-0.013
354.57	-0.013
354.77	-0.013
354.98	-0.012
355.19	-0.012
355.40	-0.012
355.61	-0.012
355.82	-0.012
356.02	-0.011
356.23	-0.011
356.44	-0.010
356.65	-0.011
356.86	-0.011
357.07	-0.010
357.27	-0.010
357.48	-0.010
357.69	-0.009
357.90	-0.009
358.11	-0.009
358.32	-0.009
358.52	-0.009
358.73	-0.009
358.94	-0.008
359.15	-0.008
359.36	-0.009
359.56	-0.009
359.77	-0.008
359.98	-0.008
360.19	-0.008
360.40	-0.008
360.61	-0.008
360.81	-0.007
361.02	-0.007
361.23	-0.007
361.44	-0.007
361.65	-0.006
361.85	-0.006
362.06	-0.006
362.27	-0.006
362.48	-0.005
362.69	-0.005
362.89	-0.005
363.10	-0.005
363.31	-0.005
363.52	-0.004
363.73	-0.004
363.93	-0.004
364.14	-0.004
364.35	-0.003
364.56	-0.003
364.77	-0.003
364.97	-0.003
365.18	-0.002
365.39	-0.002
365.60	-0.002
365.81	-0.001
366.01	-0.001
366.22	-0.001
366.43	-0.001
366.64	-0.001
366.84	-0.001
367.05	-0.000
367.26	-0.000
367.47	-0.000
367.68	-0.000
367.88	-0.000
368.09	-0.000
368.30	-0.000
368.51	-0.000
368.71	-0.000
368.92	-0.000
369.13	-0.000
369.34	-0.001
369.55	-0.001
369.75	-0.001
369.96	-0.001
370.17	-0.001
370.38	-0.001
370.58	-0.001
370.79	-0.002
371.00	-0.002
371.21	-0.002
371.41	-0.002
371.62	-0.003
371.83	-0.003
372.04	-0.003
372.24	-0.003
372.45	-0.003
372.66	-0.003
372.87	-0.003
373.07	-0.003
373.28	-0.003
373.49	-0.003
373.70	-0.003
373.90	-0.003
374.11	-0.003
374.32	-0.003
374.53	-0.003
374.73	-0.003
374.94	-0.003
375.15	-0.003
375.36	-0.003
375.56	-0.003
375.77	-0.003
375.98	-0.003
376.19	-0.002
376.39	-0.002
376.60	-0.002
376.81	-0.002
377.02	-0.002
377.22	-0.002
377.43	-0.001
377.64	-0.001
377.84	-0.001
378.05	-0.001
378.26	-0.001
378.47	-0.001
378.67	-0.000
378.88	-0.000
379.09	-0.000
379.30	-0.000
379.50	-0.000
379.71	-0.000
379.92	-0.000
380.12	-0.000
380.33	-0.000
380.54	-0.000
380.75	-0.000
380.95	-0.000
381.16	-0.001
381.37	-0.001
381.57	-0.001
381.78	-0.001
381.99	-0.001
382.20	-0.001
382.40	-0.002
382.61	-0.002
382.82	-0.002
383.02	-0.002
383.23	-0.003
383.44	-0.003
383.64	-0.003
383.85	-0.003
384.06	-0.003
384.27	-0.004
384.47	-0.004
384.68	-0.004
384.89	-0.004
385.09	-0.004
385.30	-0.004
385.51	-0.004
385.71	-0.004
385.92	-0.004
386.13	-0.003
386.33	-0.003
386.54	-0.003
386.75	-0.003
386.95	-0.003
387.16	-0.003
387.37	-0.003
387.58	-0.003
387.78	-0.003
387.99	-0.003
388.20	-0.002
388.40	-0.003
388.61	-0.002
388.82	-0.002
389.02	-0.002
389.23	-0.002
389.44	-0.002
389.64	-0.002
389.85	-0.002
390.06	-0.002
390.26	-0.002
390.47	-0.002
390.68	-0.001
390.88	-0.001
391.09	-0.001
391.30	-0.001
391.50	-0.001
391.71	-0.001
391.92	-0.000
392.12	-0.000
392.33	-0.000
392.53	0.000
392.74	0.000
392.95	0.000
393.15	0.000
393.36	0.000
393.57	0.000
393.77	0.000
393.98	0.000
394.19	-0.000
394.39	-0.000
394.60	-0.000
394.81	-0.000
395.01	-0.001
395.22	-0.001
395.43	-0.001
395.63	-0.001
395.84	-0.001
396.04	-0.001
396.25	-0.001
396.46	-0.001
396.66	-0.001
396.87	-0.001
397.08	-0.001
397.28	-0.000
397.49	-0.000
397.69	-0.000
397.90	-0.000
398.11	-0.000
398.31	0.000
398.52	0.000
398.73	0.000
398.93	0.000
399.14	0.000
399.34	0.000
399.55	0.000
399.76	0.000
399.96	0.000
400.17	-0.000
400.37	-0.000
400.58	-0.000
400.79	-0.000
400.99	-0.000
401.20	-0.000
401.41	-0.001
401.61	-0.001
401.82	-0.002
402.02	-0.002
402.23	-0.002
402.44	-0.002
402.64	-0.003
402.85	-0.003
403.05	-0.003
403.26	-0.003
403.47	-0.003
403.67	-0.003
403.88	-0.002
404.08	-0.002
404.29	-0.002
404.50	-0.002
404.70	-0.002
404.91	-0.001
405.11	-0.001
405.32	-0.001
405.52	-0.001
405.73	-0.001
405.94	-0.001
406.14	-0.001
406.35	-0.001
406.55	-0.001
406.76	-0.002
406.97	-0.002
407.17	-0.002
407.38	-0.002
407.58	-0.002
407.79	-0.002
407.99	-0.003
408.20	-0.003
408.41	-0.003
408.61	-0.003
408.82	-0.004
409.02	-0.003
409.23	-0.003
409.43	-0.003
409.64	-0.004
409.84	-0.004
410.05	-0.004
410.26	-0.004
410.46	-0.004
410.67	-0.004
410.87	-0.004
411.08	-0.004
411.28	-0.004
411.49	-0.004
411.69	-0.004
411.90	-0.004
412.11	-0.004
412.31	-0.004
412.52	-0.004
412.72	-0.004
412.93	-0.004
413.13	-0.004
413.34	-0.004
413.54	-0.004
413.75	-0.005
413.95	-0.005
414.16	-0.005
414.37	-0.005
414.57	-0.005
414.78	-0.005
414.98	-0.006
415.19	-0.007
415.39	-0.007
415.60	-0.007
415.80	-0.007
416.01	-0.008
416.21	-0.009
416.42	-0.010
416.62	-0.010
416.83	-0.011
417.03	-0.012
417.24	-0.012
417.44	-0.012
417.65	-0.013
417.86	-0.013
418.06	-0.013
418.27	-0.013
418.47	-0.012
418.68	-0.012
418.88	-0.012
419.09	-0.011
419.29	-0.010
419.50	-0.009
419.70	-0.008
419.91	-0.007
420.11	-0.006
420.32	-0.005
420.52	-0.004
420.73	-0.003
420.93	-0.002
421.14	-0.001
421.34	-0.001
421.55	-0.001
421.75	-0.000
421.96	-0.000
422.16	-0.000
422.37	-0.000
422.57	-0.000
422.78	-0.000
422.98	-0.000
423.19	-0.000
423.39	-0.000
423.60	-0.001
423.80	-0.001
424.01	-0.001
424.21	-0.002
424.42	-0.003
424.62	-0.003
424.83	-0.004
425.03	-0.005
425.23	-0.007
425.44	-0.008
425.64	-0.009
425.85	-0.009
426.05	-0.010
426.26	-0.011
426.46	-0.011
426.67	-0.012
426.87	-0.012
427.08	-0.012
427.28	-0.011
427.49	-0.010
427.69	-0.009
427.90	-0.008
428.10	-0.007
428.31	-0.006
428.51	-0.005
428.71	-0.003
428.92	-0.002
429.12	-0.001
429.33	-0.000
429.53	-0.000
429.74	-0.000
429.94	0.000
430.15	0.000
430.35	0.000
430.56	0.000
430.76	0.000
430.96	0.000
431.17	0.000
431.37	-0.000
431.58	-0.000
431.78	-0.000
431.99	-0.001
432.19	-0.001
432.40	-0.001
432.60	-0.002
432.80	-0.003
433.01	-0.004
433.21	-0.005
433.42	-0.006
433.62	-0.007
433.83	-0.008
434.03	-0.008
434.23	-0.008
434.44	-0.008
434.64	-0.009
434.85	-0.009
435.05	-0.008
435.26	-0.008
435.46	-0.008
435.66	-0.007
435.87	-0.006
436.07	-0.006
436.28	-0.006
436.48	-0.005
436.69	-0.005
436.89	-0.005
437.09	-0.005
437.30	-0.005
437.50	-0.005
437.71	-0.004
437.91	-0.005
438.11	-0.006
438.32	-0.006
438.52	-0.006
438.73	-0.007
438.93	-0.008
439.13	-0.009
439.34	-0.010
439.54	-0.010
439.75	-0.011
439.95	-0.011
440.15	-0.011
440.36	-0.012
440.56	-0.012
440.77	-0.012
440.97	-0.012
441.17	-0.012
441.38	-0.011
441.58	-0.011
441.79	-0.011
441.99	-0.010
442.19	-0.010
442.40	-0.009
442.60	-0.009
442.81	-0.008
443.01	-0.008
443.21	-0.008
443.42	-0.007
443.62	-0.007
443.82	-0.007
444.03	-0.007
444.23	-0.007
444.44	-0.008
444.64	-0.007
444.84	-0.007
445.05	-0.007
445.25	-0.007
445.45	-0.007
445.66	-0.007
445.86	-0.007
446.06	-0.007
446.27	-0.008
446.47	-0.008
446.68	-0.007
446.88	-0.008
447.08	-0.009
447.29	-0.010
447.49	-0.010
447.69	-0.011
447.90	-0.011
448.10	-0.011
448.30	-0.012
448.51	-0.012
448.71	-0.013
448.91	-0.014
449.12	-0.014
449.32	-0.014
449.52	-0.014
449.73	-0.015
449.93	-0.015
450.14	-0.016
450.34	-0.017
450.54	-0.017
450.75	-0.018
450.95	-0.019
451.15	-0.019
451.36	-0.019
451.56	-0.020
451.76	-0.020
451.97	-0.021
452.17	-0.021
452.37	-0.022
452.58	-0.022
452.78	-0.022
452.98	-0.022
453.19	-0.022
453.39	-0.022
453.59	-0.022
453.79	-0.022
454.00	-0.022
454.20	-0.022
454.40	-0.022
454.61	-0.022
454.81	-0.022
455.01	-0.022
455.22	-0.022
455.42	-0.021
455.62	-0.021
455.83	-0.021
456.03	-0.021
456.23	-0.021
456.44	-0.021
456.64	-0.021
456.84	-0.021
457.04	-0.021
457.25	-0.021
457.45	-0.021
457.65	-0.022
457.86	-0.021
458.06	-0.022
458.26	-0.021
458.47	-0.021
458.67	-0.021
458.87	-0.021
459.07	-0.021
459.28	-0.021
459.48	-0.021
459.68	-0.021
459.89	-0.021
460.09	-0.021
460.29	-0.021
460.49	-0.021
460.70	-0.021
460.90	-0.021
461.10	-0.021
461.31	-0.021
461.51	-0.021
461.71	-0.021
461.91	-0.021
462.12	-0.021
462.32	-0.021
462.52	-0.021
462.72	-0.021
462.93	-0.021
463.13	-0.021
463.33	-0.021
463.53	-0.021
463.74	-0.021
463.94	-0.021
464.14	-0.021
464.35	-0.021
464.55	-0.021
464.75	-0.021
464.95	-0.021
465.16	-0.021
465.36	-0.021
465.56	-0.021
465.76	-0.021
465.97	-0.021
466.17	-0.021
466.37	-0.021
466.57	-0.021
466.78	-0.021
466.98	-0.021
467.18	-0.021
467.38	-0.021
467.59	-0.021
467.79	-0.021
467.99	-0.021
468.19	-0.022
468.39	-0.022
468.60	-0.021
468.80	-0.022
469.00	-0.022
469.20	-0.022
469.41	-0.021
469.61	-0.021
469.81	-0.021
470.01	-0.021
470.22	-0.021
470.42	-0.021
470.62	-0.021
470.82	-0.021
471.02	-0.021
471.23	-0.022
471.43	-0.022
471.63	-0.022
471.83	-0.022
472.04	-0.021
472.24	-0.021
472.44	-0.021
472.64	-0.020
472.84	-0.019
473.05	-0.017
473.25	-0.015
473.45	-0.014
473.65	-0.012
473.85	-0.010
474.06	-0.008
474.26	-0.006
474.46	-0.005
474.66	-0.003
474.86	-0.002
475.07	-0.001
475.27	-0.001
475.47	-0.000
475.67	-0.000
475.87	-0.000
476.08	0.000
476.28	0.000
476.48	0.000
476.68	0.000
476.88	0.000
477.09	0.000
477.29	0.000
477.49	0.000
477.69	0.000
477.89	0.000
478.09	0.000
478.30	0.000
478.50	0.000
478.70	0.000
478.90	0.000
479.10	0.000
479.31	0.000
479.51	0.000
479.71	0.000
479.91	0.000
480.11	0.000
480.31	0.000
480.52	0.000
480.72	0.000
480.92	0.000
481.12	0.000
481.32	0.000
481.52	0.000
481.72	0.000
481.93	0.000
482.13	0.000
482.33	0.000
482.53	0.000
482.73	0.000
482.93	0.000
483.14	0.000
483.34	0.000
483.54	0.000
483.74	0.000
483.94	0.000
484.14	0.000
484.34	0.000
484.55	0.000
484.75	0.000
484.95	0.000
485.15	0.000
485.35	0.000
485.55	0.000
485.75	0.000
485.96	0.000
486.16	0.000
486.36	0.000
486.56	0.000
486.76	0.000
486.96	0.000
487.16	0.000
487.36	0.000
487.57	0.000
487.77	0.000
487.97	0.000
488.17	0.000
488.37	0.000
488.57	0.000
488.77	0.000
488.97	0.000
489.18	0.000
489.38	0.000
489.58	0.000
489.78	0.000
489.98	0.000
490.18	0.000
490.38	0.000
490.58	0.000
490.78	0.000
490.98	0.000
491.19	0.000
491.39	0.000
491.59	0.000
491.79	0.000
491.99	0.000
492.19	0.000
492.39	0.000
492.59	0.000
492.79	0.000
492.99	0.000
493.20	0.000
493.40	0.000
493.60	0.000
493.80	0.000
494.00	0.000
494.20	0.000
494.40	0.000
494.60	0.000
494.80	0.000
495.00	0.000
495.20	0.000
495.40	0.000
495.61	0.000
495.81	0.000
496.01	0.000
496.21	0.000
496.41	0.000
496.61	0.000
496.81	0.000
497.01	0.000
497.21	0.000
497.41	0.000
497.61	0.000
497.81	0.000
498.01	0.000
498.21	0.000
498.41	0.000
498.61	0.000
498.82	0.000
499.02	0.000
499.22	0.000
499.42	0.000
499.62	0.000
499.82	0.000
500.02	0.000
500.22	0.000
500.42	0.000
500.62	0.000
500.82	0.000
501.02	0.000
501.22	0.000
501.42	0.000
501.62	0.000
501.82	0.000
502.02	0.000
502.22	0.000
502.42	0.000
502.62	0.000
502.82	0.000
503.02	0.000
503.22	0.000
503.42	0.000
503.63	0.000
503.83	0.000
504.03	0.000
504.23	0.000
504.43	0.000
504.63	0.000
504.83	0.000
505.03	0.000
505.23	0.000
505.43	0.000
505.63	0.000
505.83	0.000
506.03	0.000
506.23	0.000
506.43	0.000
506.63	0.000
506.83	0.000
507.03	0.000
507.23	0.000
507.43	0.000
507.63	0.000
507.83	0.000
508.03	0.000
508.23	0.000
508.43	0.000
508.63	0.000
508.83	0.000
509.03	0.000
509.23	0.000
509.43	0.000
509.63	0.000
509.83	0.000
510.03	0.000
510.23	0.000
510.43	0.000
510.63	0.000
510.83	0.000
511.03	0.000
511.23	0.000
511.43	0.000
511.63	0.000
511.83	0.000
512.03	0.000
512.22	0.000
512.42	0.000
512.62	0.000
512.82	0.000
513.02	0.000
513.22	0.000
513.42	0.000
513.62	0.000
513.82	0.000
514.02	0.000
514.22	0.000
514.42	0.000
514.62	0.000
514.82	0.000
515.02	0.000
515.22	0.000
515.42	0.000
515.62	0.000
515.82	0.000
516.02	0.000
516.22	0.000
516.42	0.000
516.62	0.000
516.82	0.000
517.01	0.000
517.21	0.000
517.41	0.000
517.61	0.000
517.81	0.000
518.01	0.000
518.21	0.000
518.41	0.000
518.61	0.000
518.81	0.000
519.01	0.000
519.21	0.000
519.41	0.000
519.61	0.000
519.81	0.000
520.00	0.000
520.20	0.000
520.40	0.000
520.60	-0.000
520.80	-0.000
521.00	-0.000
521.20	-0.000
521.40	-0.000
521.60	-0.000
521.80	-0.000
522.00	-0.000
522.20	-0.000
522.39	-0.000
522.59	-0.001
522.79	-0.001
522.99	-0.001
523.19	-0.001
523.39	-0.001
523.59	-0.001
523.79	-0.001
523.99	-0.001
524.19	-0.001
524.38	-0.001
524.58	-0.002
524.78	-0.002
524.98	-0.002
525.18	-0.002
525.38	-0.002
525.58	-0.003
525.78	-0.003
525.98	-0.003
526.18	-0.003
526.37	-0.003
526.57	-0.003
526.77	-0.003
526.97	-0.003
527.17	-0.003
527.37	-0.003
527.57	-0.003
527.77	-0.003
527.96	-0.002
528.16	-0.002
528.36	-0.003
528.56	-0.003
528.76	-0.002
528.96	-0.003
529.16	-0.003
529.36	-0.003
529.55	-0.003
529.75	-0.003
529.95	-0.003
530.15	-0.003
530.35	-0.003
530.55	-0.003
530.75	-0.003
530.94	-0.003
531.14	-0.003
531.34	-0.003
531.54	-0.003
531.74	-0.003
531.94	-0.003
532.13	-0.003
532.33	-0.002
532.53	-0.002
532.73	-0.002
532.93	-0.002
533.13	-0.001
533.33	-0.001
533.52	-0.001
533.72	-0.001
533.92	-0.000
534.12	-0.000
534.32	-0.000
534.52	-0.000
534.71	-0.000
534.91	-0.000
535.11	-0.000
535.31	-0.000
535.51	-0.000
535.71	-0.000
535.90	-0.000
536.10	-0.000
536.30	-0.000
536.50	-0.000
536.70	-0.000
536.89	-0.000
537.09	-0.000
537.29	-0.000
537.49	-0.000
537.69	0.000
537.89	0.000
538.08	0.000
538.28	0.000
538.48	0.000
538.68	0.000
538.88	0.000
539.07	0.000
539.27	0.000
539.47	0.000
539.67	0.000
539.87	0.000
540.06	0.000
540.26	0.000
540.46	0.000
540.66	0.000
540.86	0.000
541.05	-0.000
541.25	-0.000
541.45	-0.000
541.65	-0.000
541.84	-0.000
542.04	-0.000
542.24	-0.000
542.44	-0.000
542.64	-0.000
542.83	-0.000
543.03	-0.000
543.23	-0.000
543.43	-0.000
543.62	-0.000
543.82	-0.000
544.02	-0.000
544.22	-0.000
544.42	-0.000
544.61	-0.000
544.81	-0.000
545.01	0.000
545.21	0.000
545.40	0.000
545.60	0.000
545.80	0.000
546.00	0.000
546.19	0.000
546.39	0.000
546.59	0.000
546.79	0.000
546.98	0.000
547.18	0.000
547.38	0.000
547.58	0.000
547.77	0.000
547.97	0.000
548.17	-0.000
548.37	-0.000
548.56	-0.000
548.76	-0.000
548.96	-0.001
549.16	-0.001
549.35	-0.001
549.55	-0.002
549.75	-0.003
549.95	-0.003
550.14	-0.004
550.34	-0.004
550.54	-0.005
550.73	-0.005
550.93	-0.005
551.13	-0.005
551.33	-0.005
551.52	-0.005
551.72	-0.005
551.92	-0.005
552.12	-0.004
552.31	-0.004
552.51	-0.003
552.71	-0.002
552.90	-0.002
553.10	-0.002
553.30	-0.001
553.50	-0.001
553.69	-0.001
553.89	-0.000
554.09	-0.000
554.28	-0.000
554.48	-0.000
554.68	-0.001
554.87	-0.001
555.07	-0.001
555.27	-0.002
555.47	-0.003
555.66	-0.004
555.86	-0.006
556.06	-0.007
556.25	-0.009
556.45	-0.011
556.65	-0.012
556.84	-0.014
557.04	-0.015
557.24	-0.017
557.43	-0.018
557.63	-0.019
557.83	-0.019
558.02	-0.020
558.22	-0.020
558.42	-0.021
558.61	-0.021
558.81	-0.020
559.01	-0.020
559.21	-0.020
559.40	-0.019
559.60	-0.019
559.80	-0.018
559.99	-0.016
560.19	-0.015
560.39	-0.013
560.58	-0.011
560.78	-0.009
560.97	-0.007
561.17	-0.006
561.37	-0.005
561.56	-0.003
561.76	-0.002
561.96	-0.001
562.15	-0.001
562.35	-0.000
562.55	-0.000
562.74	-0.000
562.94	-0.001
563.14	-0.001
563.33	-0.002
563.53	-0.003
563.73	-0.004
563.92	-0.005
564.12	-0.006
564.31	-0.008
564.51	-0.009
564.71	-0.010
564.90	-0.011
565.10	-0.013
565.30	-0.013
565.49	-0.014
565.69	-0.015
565.89	-0.015
566.08	-0.014
566.28	-0.013
566.47	-0.012
566.67	-0.011
566.87	-0.010
567.06	-0.008
567.26	-0.007
567.46	-0.005
567.65	-0.004
567.85	-0.003
568.04	-0.002
568.24	-0.001
568.44	-0.001
568.63	-0.000
568.83	0.000
569.02	0.000
569.22	0.000
569.42	0.000
569.61	0.000
569.81	0.000
570.00	0.000
570.20	0.000
570.40	0.000
570.59	0.000
570.79	0.000
570.98	0.000
571.18	0.000
571.38	0.000
571.57	0.000
571.77	0.000
571.96	0.000
572.16	0.000
572.35	0.000
572.55	0.000
572.75	0.000
572.94	0.000
573.14	0.000
573.33	0.000
573.53	0.000
573.73	0.000
573.92	0.000
574.12	0.000
574.31	0.000
574.51	0.000
574.70	0.000
574.90	0.000
575.09	0.000
575.29	0.000
575.49	0.000
575.68	0.000
575.88	0.000
576.07	0.000
576.27	0.000
576.46	0.000
576.66	0.000
576.86	0.000
577.05	0.000
577.25	0.000
577.44	0.000
577.64	0.000
577.83	0.000
578.03	0.000
578.22	0.000
578.42	0.000
578.61	0.000
578.81	0.000
579.00	0.000
579.20	0.000
579.40	0.000
579.59	0.000
579.79	0.000
579.98	0.000
580.18	0.000
580.37	0.000
580.57	0.000
580.76	0.000
580.96	0.000
581.15	0.000
581.35	0.000
581.54	0.000
581.74	0.000
581.93	0.000
582.13	0.000
582.32	0.000
582.52	0.000
582.71	0.000
582.91	0.000
583.10	0.000
583.30	0.000
583.49	0.000
583.69	0.000
583.88	0.000
584.08	0.000
584.27	0.000
584.47	0.000
584.66	0.000
584.86	0.000
585.05	0.000
585.25	0.000
585.44	0.000
585.64	0.000
585.83	0.000
586.03	0.000
586.22	0.000
586.42	0.000
586.61	0.000
586.81	0.000
587.00	0.000
587.20	0.000
587.39	0.000
587.59	0.000
587.78	0.000
587.98	0.000
588.17	0.000
588.37	0.000
588.56	0.000
588.76	0.000
588.95	0.000
589.15	0.000
589.34	0.000
589.54	0.000
589.73	0.000
589.92	0.000
590.12	0.000
590.31	0.000
590.51	0.000
590.70	0.000
590.90	0.000
591.09	0.000
591.29	0.000
591.48	0.000
591.68	0.000
591.87	0.000
592.06	0.000
592.26	0.000
592.45	0.000
592.65	0.000
592.84	0.000
593.04	0.000
593.23	0.000
593.43	0.000
593.62	0.000
593.81	0.000
594.01	0.000
594.20	0.000
594.40	0.000
594.59	0.000
594.79	0.000
594.98	0.000
595.17	0.000
595.37	0.000
595.56	0.000
595.76	0.000
595.95	0.000
596.14	0.000
596.34	0.000
596.53	0.000
596.73	0.000
596.92	0.000
597.12	0.000
597.31	0.000
597.50	0.000
597.70	0.000
597.89	0.000
598.09	0.000
598.28	0.000
598.47	0.000
598.67	0.000
598.86	0.000
599.06	0.000
599.25	0.000
599.44	0.000
599.64	0.000
599.83	0.000
600.03	0.000
600.22	0.000
600.41	0.000
600.61	0.000
600.80	0.000
601.00	0.000
601.19	0.000
601.38	0.000
601.58	0.000
601.77	0.000
601.96	0.000
602.16	0.000
602.35	0.000
602.55	0.000
602.74	0.000
602.93	0.000
603.13	0.000
603.32	0.000
603.51	0.000
603.71	0.000
603.90	0.000
604.09	0.000
604.29	0.000
604.48	0.000
604.68	0.000
604.87	0.000
605.06	0.000
605.26	0.000
605.45	0.000
605.64	0.000
605.84	0.000
606.03	0.000
606.22	0.000
606.42	0.000
606.61	0.000
606.80	0.000
607.00	0.000
607.19	0.000
607.38	0.000
607.58	0.000
607.77	0.000
607.96	0.000
608.16	0.000
608.35	0.000
608.54	0.000
608.74	0.000
608.93	0.000
609.12	0.000
609.32	0.000
609.51	0.000
609.70	0.000
609.90	0.000
610.09	0.000
610.28	0.000
610.48	0.000
610.67	0.000
610.86	0.000
611.06	0.000
611.25	0.000
611.44	0.000
611.64	0.000
611.83	0.000
612.02	0.000
612.21	0.000
612.41	0.000
612.60	0.000
612.79	0.000
612.99	0.000
613.18	0.000
613.37	0.000
613.57	0.000
613.76	0.000
613.95	0.000
614.14	0.000
614.34	0.000
614.53	0.000
614.72	0.000
614.92	0.000
615.11	0.000
615.30	0.000
615.49	0.000
615.69	-0.000
615.88	-0.000
616.07	-0.001
616.26	-0.001
616.46	-0.003
616.65	-0.004
616.84	-0.006
617.04	-0.008
617.23	-0.010
617.42	-0.012
617.61	-0.015
617.81	-0.017
618.00	-0.021
618.19	-0.024
618.38	-0.028
618.58	-0.030
618.77	-0.034
618.96	-0.037
619.15	-0.041
619.35	-0.043
619.54	-0.047
619.73	-0.050
619.92	-0.053
620.12	-0.054
620.31	-0.056
620.50	-0.056
620.69	-0.057
620.89	-0.057
621.08	-0.056
621.27	-0.055
621.46	-0.054
621.66	-0.052
621.85	-0.050
622.04	-0.048
622.23	-0.046
622.43	-0.045
622.62	-0.042
622.81	-0.041
623.00	-0.039
623.19	-0.038
623.39	-0.037
623.58	-0.037
623.77	-0.036
623.96	-0.036
624.16	-0.035
624.35	-0.035
624.54	-0.035
624.73	-0.035
624.92	-0.034
625.12	-0.034
625.31	-0.033
625.50	-0.033
625.69	-0.032
625.88	-0.032
626.08	-0.031
626.27	-0.030
626.46	-0.029
626.65	-0.028
626.84	-0.027
627.04	-0.026
627.23	-0.025
627.42	-0.024
627.61	-0.022
627.80	-0.022
628.00	-0.021
628.19	-0.021
628.38	-0.020
628.57	-0.020
628.76	-0.019
628.96	-0.019
629.15	-0.019
629.34	-0.019
629.53	-0.019
629.72	-0.019
629.91	-0.019
630.11	-0.019
630.30	-0.019
630.49	-0.019
630.68	-0.019
630.87	-0.019
631.06	-0.019
631.26	-0.019
631.45	-0.019
631.64	-0.019
631.83	-0.019
632.02	-0.019
632.21	-0.019
632.41	-0.019
632.60	-0.020
632.79	-0.019
632.98	-0.019
633.17	-0.020
633.36	-0.019
633.55	-0.019
633.75	-0.019
633.94	-0.019
634.13	-0.019
634.32	-0.019
634.51	-0.019
634.70	-0.019
634.89	-0.019
635.09	-0.020
635.28	-0.019
635.47	-0.019
635.66	-0.019
635.85	-0.019
636.04	-0.020
636.23	-0.020
636.43	-0.019
636.62	-0.020
636.81	-0.019
637.00	-0.019
637.19	-0.019
637.38	-0.019
637.57	-0.019
637.76	-0.019
637.95	-0.019
638.15	-0.019
638.34	-0.019
638.53	-0.020
638.72	-0.019
638.91	-0.020
639.10	-0.020
639.29	-0.020
639.48	-0.020
639.67	-0.020
639.87	-0.020
640.06	-0.020
640.25	-0.020
640.44	-0.020
640.63	-0.020
640.82	-0.020
641.01	-0.020
641.20	-0.020
641.39	-0.020
641.58	-0.020
641.78	-0.020
641.97	-0.020
642.16	-0.019
642.35	-0.019
642.54	-0.019
642.73	-0.019
642.92	-0.019
643.11	-0.019
643.30	-0.019
643.49	-0.019
643.68	-0.019
643.87	-0.019
644.06	-0.019
644.25	-0.019
644.45	-0.019
644.64	-0.019
644.83	-0.020
645.02	-0.020
645.21	-0.020
645.40	-0.020
645.59	-0.020
645.78	-0.020
645.97	-0.020
646.16	-0.020
646.35	-0.020
646.54	-0.020
646.73	-0.020
646.92	-0.020
647.11	-0.020
647.30	-0.020
647.49	-0.020
647.68	-0.020
647.88	-0.020
648.07	-0.020
648.26	-0.020
648.45	-0.020
648.64	-0.020
648.83	-0.020
649.02	-0.020
649.21	-0.020
649.40	-0.019
649.59	-0.019
649.78	-0.019
649.97	-0.019
650.16	-0.019
650.35	-0.019
650.54	-0.019
650.73	-0.019
650.92	-0.019
651.11	-0.019
651.30	-0.019
651.49	-0.019
651.68	-0.019
651.87	-0.019
652.06	-0.019
652.25	-0.019
652.44	-0.019
652.63	-0.019
652.82	-0.020
653.01	-0.020
653.20	-0.018
653.39	-0.016
653.58	-0.014
653.77	-0.012
653.96	-0.010
654.15	-0.008
654.34	-0.007
654.53	-0.005
654.72	-0.004
654.91	-0.002
655.10	-0.000
655.29	0.000
655.48	0.000
655.67	0.000
655.86	0.000
656.05	0.000
656.24	0.000
656.43	0.000
656.62	0.000
656.81	0.000
657.00	0.000
657.19	0.000
657.38	0.000
657.57	0.000
657.76	-0.002
657.95	-0.006
658.14	-0.011
658.33	-0.015
658.51	-0.017
658.70	-0.019
658.89	-0.021
659.08	-0.023
659.27	-0.025
659.46	-0.027
659.65	-0.029
659.84	-0.029
660.03	-0.026
660.22	-0.022
660.41	-0.019
660.60	-0.019
660.79	-0.019
660.98	-0.019
661.17	-0.019
661.36	-0.019
661.55	-0.020
661.74	-0.019
661.92	-0.020
662.11	-0.020
662.30	-0.020
662.49	-0.020
662.68	-0.020
662.87	-0.020
663.06	-0.020
663.25	-0.020
663.44	-0.020
663.63	-0.020
663.82	-0.020
664.01	-0.020
664.20	-0.020
664.38	-0.019
664.57	-0.019
664.76	-0.020
664.95	-0.019
665.14	-0.019
665.33	-0.019
665.52	-0.020
665.71	-0.019
665.90	-0.020
666.09	-0.020
666.28	-0.019
666.46	-0.019
666.65	-0.019
666.84	-0.019
667.03	-0.019
667.22	-0.019
667.41	-0.020
667.60	-0.019
667.79	-0.019
667.98	-0.019
668.16	-0.019
668.35	-0.019
668.54	-0.020
668.73	-0.020
668.92	-0.020
669.11	-0.020
669.30	-0.020
669.49	-0.020
669.67	-0.020
669.86	-0.020
670.05	-0.020
670.24	-0.020
670.43	-0.020
670.62	-0.019
670.81	-0.020
671.00	-0.019
671.18	-0.019
671.37	-0.019
671.56	-0.019
671.75	-0.019
671.94	-0.019
672.13	-0.019
672.32	-0.019
672.50	-0.019
672.69	-0.019
672.88	-0.019
673.07	-0.019
673.26	-0.019
673.45	-0.019
673.63	-0.019
673.82	-0.019
674.01	-0.020
674.20	-0.019
674.39	-0.019
674.58	-0.019
674.76	-0.019
674.95	-0.019
675.14	-0.019
675.33	-0.019
675.52	-0.019
675.71	-0.019
675.89	-0.019
676.08	-0.020
676.27	-0.020
676.46	-0.020
676.65	-0.020
676.84	-0.020
677.02	-0.020
677.21	-0.020
677.40	-0.020
677.59	-0.020
677.78	-0.020
677.96	-0.020
678.15	-0.019
678.34	-0.020
678.53	-0.019
678.72	-0.019
678.90	-0.020
679.09	-0.020
679.28	-0.019
679.47	-0.020
679.66	-0.020
679.84	-0.020
680.03	-0.020
680.22	-0.020
680.41	-0.020
680.60	-0.020
680.78	-0.020
680.97	-0.020
681.16	-0.020
681.35	-0.019
681.53	-0.019
681.72	-0.019
681.91	-0.019
682.10	-0.019
682.29	-0.019
682.47	-0.019
682.66	-0.019
682.85	-0.020
683.04	-0.019
683.22	-0.019
683.41	-0.019
683.60	-0.019
683.79	-0.019
683.97	-0.019
684.16	-0.019
684.35	-0.019
684.54	-0.019
684.72	-0.019
684.91	-0.019
685.10	-0.019
685.29	-0.019
685.47	-0.019
685.66	-0.019
685.85	-0.019
686.04	-0.019
686.22	-0.019
686.41	-0.019
686.60	-0.019
686.79	-0.019
686.97	-0.019
687.16	-0.019
687.35	-0.019
687.54	-0.019
687.72	-0.020
687.91	-0.019
688.10	-0.020
688.29	-0.020
688.47	-0.020
688.66	-0.020
688.85	-0.019
689.03	-0.019
689.22	-0.019
689.41	-0.020
689.60	-0.020
689.78	-0.019
689.97	-0.019
690.16	-0.019
690.34	-0.019
690.53	-0.019
690.72	-0.019
690.91	-0.019
691.09	-0.019
691.28	-0.019
691.47	-0.019
691.65	-0.019
691.84	-0.019
692.03	-0.019
692.21	-0.019
692.40	-0.019
692.59	-0.019
692.77	-0.019
692.96	-0.019
693.15	-0.019
693.34	-0.019
693.52	-0.019
693.71	-0.019
693.90	-0.019
694.08	-0.019
694.27	-0.020
694.46	-0.020
694.64	-0.020
694.83	-0.019
695.02	-0.020
695.20	-0.019
695.39	-0.020
695.58	-0.020
695.76	-0.019
695.95	-0.019
696.14	-0.019
696.32	-0.019
696.51	-0.019
696.70	-0.019
696.88	-0.019
697.07	-0.019
697.26	-0.019
697.44	-0.019
697.63	-0.019
697.81	-0.020
698.00	-0.019
698.19	-0.019
698.37	-0.019
698.56	-0.019
698.75	-0.019
698.93	-0.019
699.12	-0.019
699.31	-0.019
699.49	-0.019
699.68	-0.019
699.87	-0.019
700.05	-0.019
700.24	-0.019
700.42	-0.019
700.61	-0.019
700.80	-0.019
700.98	-0.019
701.17	-0.019
701.36	-0.019
701.54	-0.019
701.73	-0.019
701.91	-0.019
702.10	-0.019
702.29	-0.019
702.47	-0.019
702.66	-0.019
702.84	-0.019
703.03	-0.019
703.22	-0.019
703.40	-0.019
703.59	-0.019
703.77	-0.019
703.96	-0.019
704.15	-0.019
704.33	-0.019
704.52	-0.019
704.70	-0.019
704.89	-0.019
705.08	-0.019
705.26	-0.019
705.45	-0.019
705.63	-0.019
705.82	-0.020
706.00	-0.020
706.19	-0.019
706.38	-0.019
706.56	-0.020
706.75	-0.020
706.93	-0.020
707.12	-0.019
707.30	-0.019
707.49	-0.019
707.68	-0.019
707.86	-0.019
708.05	-0.019
708.23	-0.019
708.42	-0.019
708.60	-0.019
708.79	-0.019
708.98	-0.019
709.16	-0.019
709.35	-0.019
709.53	-0.019
709.72	-0.019
709.90	-0.019
710.09	-0.019
710.27	-0.019
710.46	-0.019
710.64	-0.019
710.83	-0.019
711.02	-0.019
711.20	-0.019
711.39	-0.019
711.57	-0.019
711.76	-0.019
711.94	-0.019
712.13	-0.020
712.31	-0.020
712.50	-0.020
712.68	-0.020
712.87	-0.020
713.05	-0.020
713.24	-0.020
713.42	-0.020
713.61	-0.020
713.79	-0.020
713.98	-0.020
714.16	-0.020
714.35	-0.020
714.54	-0.020
714.72	-0.020
714.91	-0.020
715.09	-0.020
715.28	-0.020
715.46	-0.020
715.65	-0.019
715.83	-0.019
716.02	-0.020
716.20	-0.019
716.39	-0.019
716.57	-0.019
716.76	-0.019
716.94	-0.019
717.12	-0.019
717.31	-0.019
717.49	-0.019
717.68	-0.020
717.86	-0.020
718.05	-0.020
718.23	-0.020
718.42	-0.020
718.60	-0.020
718.79	-0.020
718.97	-0.020
719.16	-0.020
719.34	-0.020
719.53	-0.020
719.71	-0.020
719.90	-0.020
720.08	-0.020
720.27	-0.020
720.45	-0.019
720.63	-0.019
720.82	-0.019
721.00	-0.019
721.19	-0.019
721.37	-0.019
721.56	-0.019
721.74	-0.019
721.93	-0.019
722.11	-0.019
722.30	-0.019
722.48	-0.019
722.66	-0.019
722.85	-0.020
723.03	-0.020
723.22	-0.019
723.40	-0.020
723.59	-0.020
723.77	-0.019
723.95	-0.020
724.14	-0.020
724.32	-0.020
724.51	-0.020
724.69	-0.020
724.88	-0.020
725.06	-0.020
725.24	-0.020
725.43	-0.020
725.61	-0.020
725.80	-0.020
725.98	-0.019
726.16	-0.019
726.35	-0.019
726.53	-0.019
726.72	-0.019
726.90	-0.019
727.09	-0.019
727.27	-0.020
727.45	-0.020
727.64	-0.020
727.82	-0.020
728.01	-0.020
728.19	-0.020
728.37	-0.020
728.56	-0.020
728.74	-0.020
728.92	-0.020
729.11	-0.020
729.29	-0.020
729.48	-0.020
729.66	-0.020
729.84	-0.020
730.03	-0.020
730.21	-0.021
730.40	-0.021
730.58	-0.021
730.76	-0.021
730.95	-0.020
731.13	-0.021
731.31	-0.021
731.50	-0.021
731.68	-0.020
731.86	-0.021
732.05	-0.021
732.23	-0.020
732.42	-0.020
732.60	-0.020
732.78	-0.020
732.97	-0.021
733.15	-0.020
733.33	-0.020
733.52	-0.020
733.70	-0.020
733.88	-0.020
734.07	-0.020
734.25	-0.020
734.43	-0.020
734.62	-0.021
734.80	-0.020
734.98	-0.020
735.17	-0.020
735.35	-0.021
735.53	-0.021
735.72	-0.020
735.90	-0.020
736.08	-0.021
736.27	-0.020
736.45	-0.020
736.63	-0.020
736.82	-0.020
737.00	-0.020
737.18	-0.020
737.37	-0.020
737.55	-0.020
737.73	-0.020
737.92	-0.020
738.10	-0.020
738.28	-0.020
738.46	-0.020
738.65	-0.020
738.83	-0.020
739.01	-0.020
739.20	-0.020
739.38	-0.020
739.56	-0.020
739.75	-0.020
739.93	-0.020
740.11	-0.020
740.29	-0.020
740.48	-0.020
740.66	-0.020
740.84	-0.020
741.03	-0.020
741.21	-0.020
741.39	-0.020
741.57	-0.020
741.76	-0.020
741.94	-0.020
742.12	-0.020
742.31	-0.021
742.49	-0.021
742.67	-0.021
742.85	-0.021
743.04	-0.021
743.22	-0.021
743.40	-0.021
743.58	-0.021
743.77	-0.021
743.95	-0.021
744.13	-0.020
744.31	-0.021
744.50	-0.021
744.68	-0.021
744.86	-0.020
745.04	-0.020
745.23	-0.020
745.41	-0.019
745.59	-0.020
745.77	-0.020
745.96	-0.020
746.14	-0.020
746.32	-0.020
746.50	-0.020
746.69	-0.020
746.87	-0.020
747.05	-0.020
747.23	-0.021
747.42	-0.021
747.60	-0.020
747.78	-0.020
747.96	-0.020
748.14	-0.020
748.33	-0.020
748.51	-0.020
748.69	-0.020
748.87	-0.020
749.06	-0.020
749.24	-0.020
749.42	-0.020
749.60	-0.019
749.78	-0.020
749.97	-0.020
750.15	-0.020
750.33	-0.020
750.51	-0.020
750.69	-0.020
750.88	-0.021
751.06	-0.021
751.24	-0.021
751.42	-0.021
751.60	-0.021
751.79	-0.021
751.97	-0.020
752.15	-0.020
752.33	-0.021
752.51	-0.021
752.69	-0.020
752.88	-0.020
753.06	-0.020
753.24	-0.020
753.42	-0.020
753.60	-0.020
753.78	-0.020
753.97	-0.021
754.15	-0.021
754.33	-0.020
754.51	-0.020
754.69	-0.020
754.87	-0.020
755.06	-0.021
755.24	-0.021
755.42	-0.021
755.60	-0.021
755.78	-0.020
755.96	-0.020
756.15	-0.019
756.33	-0.019
756.51	-0.019
756.69	-0.019
756.87	-0.019
757.05	-0.019
757.23	-0.019
757.42	-0.020
757.60	-0.020
757.78	-0.020
757.96	-0.021
758.14	-0.021
758.32	-0.021
758.50	-0.021
758.69	-0.021
758.87	-0.021
759.05	-0.020
759.23	-0.020
759.41	-0.020
759.59	-0.020
759.77	-0.020
759.95	-0.020
760.13	-0.020
760.32	-0.020
760.50	-0.020
760.68	-0.020
760.86	-0.020
761.04	-0.020
761.22	-0.021
761.40	-0.021
761.58	-0.021
761.76	-0.020
761.95	-0.020
762.13	-0.020
762.31	-0.021
762.49	-0.021
762.67	-0.021
762.85	-0.020
763.03	-0.021
763.21	-0.020
763.39	-0.020
763.57	-0.020
763.75	-0.021
763.94	-0.021
764.12	-0.021
764.30	-0.020
764.48	-0.020
764.66	-0.021
764.84	-0.021
765.02	-0.020
765.20	-0.020
765.38	-0.021
765.56	-0.021
765.74	-0.020
765.92	-0.020
766.10	-0.020
766.28	-0.020
766.46	-0.020
766.65	-0.020
766.83	-0.020
767.01	-0.020
767.19	-0.020
767.37	-0.020
767.55	-0.020
767.73	-0.020
767.91	-0.019
768.09	-0.019
768.27	-0.019
768.45	-0.019
768.63	-0.019
768.81	-0.019
768.99	-0.020
769.17	-0.020
769.35	-0.020
769.53	-0.020
769.71	-0.020
769.89	-0.020
770.07	-0.020
770.25	-0.020
770.43	-0.020
770.61	-0.020
770.79	-0.020
770.97	-0.020
771.15	-0.020
771.33	-0.020
771.51	-0.020
771.69	-0.020
771.87	-0.020
772.05	-0.020
772.24	-0.020
772.42	-0.021
772.60	-0.021
772.78	-0.021
772.96	-0.021
773.14	-0.021
773.32	-0.021
773.49	-0.021
773.67	-0.021
773.85	-0.021
774.03	-0.021
774.21	-0.022
774.39	-0.021
774.57	-0.022
774.75	-0.022
774.93	-0.022
775.11	-0.022
775.29	-0.021
775.47	-0.021
775.65	-0.021
775.83	-0.020
776.01	-0.020
776.19	-0.020
776.37	-0.020
776.55	-0.020
776.73	-0.019
776.91	-0.019
777.09	-0.019
777.27	-0.020
777.45	-0.020
777.63	-0.020
777.81	-0.020
777.99	-0.020
778.17	-0.020
778.35	-0.021
778.53	-0.021
778.71	-0.021
778.89	-0.021
779.07	-0.022
779.24	-0.021
779.42	-0.021
779.60	-0.021
779.78	-0.021
779.96	-0.021
780.14	-0.021
780.32	-0.020
780.50	-0.020
780.68	-0.020
780.86	-0.020
781.04	-0.020
781.22	-0.020
781.40	-0.020
781.58	-0.019
781.75	-0.020
781.93	-0.020
782.11	-0.020
782.29	-0.020
782.47	-0.021
782.65	-0.020
782.83	-0.021
783.01	-0.020
783.19	-0.020
783.37	-0.020
783.55	-0.020
783.72	-0.020
783.90	-0.021
784.08	-0.021
784.26	-0.020
784.44	-0.020
784.62	-0.020
784.80	-0.020
784.98	-0.020
785.16	-0.020
785.33	-0.021
785.51	-0.020
785.69	-0.020
785.87	-0.021
786.05	-0.020
786.23	-0.021
786.41	-0.021
786.59	-0.021
786.77	-0.021
786.94	-0.021
787.12	-0.021
787.30	-0.021
787.48	-0.021
787.66	-0.021
787.84	-0.021
788.02	-0.021
788.19	-0.021
788.37	-0.021
788.55	-0.020
788.73	-0.021
788.91	-0.021
789.09	-0.020
789.27	-0.020
789.44	-0.020
789.62	-0.020
789.80	-0.020
789.98	-0.020
790.16	-0.020
790.34	-0.020
790.51	-0.020
790.69	-0.021
790.87	-0.020
791.05	-0.020
791.23	-0.020
791.41	-0.020
791.58	-0.020
791.76	-0.020
791.94	-0.020
792.12	-0.020
792.30	-0.019
792.48	-0.019
792.65	-0.019
792.83	-0.019
793.01	-0.020
793.19	-0.020
793.37	-0.020
793.54	-0.020
793.72	-0.020
793.90	-0.020
794.08	-0.020
794.26	-0.021
794.43	-0.021
794.61	-0.021
794.79	-0.021
794.97	-0.021
795.15	-0.020
795.32	-0.020
795.50	-0.021
795.68	-0.021
795.86	-0.021
796.04	-0.021
796.21	-0.021
796.39	-0.021
796.57	-0.020
796.75	-0.020
796.92	-0.020
797.10	-0.021
797.28	-0.021
797.46	-0.020
797.64	-0.020
797.81	-0.020
797.99	-0.020
798.17	-0.020
798.35	-0.020
798.52	-0.019
798.70	-0.019
798.88	-0.019
799.06	-0.019
799.23	-0.019
799.41	-0.019
799.59	-0.019
799.77	-0.019
799.94	-0.019
800.12	-0.019
800.30	-0.019
800.48	-0.019
800.65	-0.019
800.83	-0.019
801.01	-0.019
801.19	-0.020
801.36	-0.020
801.54	-0.019
801.72	-0.019
801.90	-0.020
802.07	-0.019
802.25	-0.019
802.43	-0.019
802.60	-0.019
802.78	-0.019
802.96	-0.019
803.14	-0.019
803.31	-0.019
803.49	-0.019
803.67	-0.020
803.84	-0.019
804.02	-0.019
804.20	-0.020
804.38	-0.019
804.55	-0.019
804.73	-0.019
804.91	-0.019
805.08	-0.019
805.26	-0.019
805.44	-0.019
805.61	-0.019
805.79	-0.019
805.97	-0.019
806.15	-0.020
806.32	-0.020
806.50	-0.019
806.68	-0.019
806.85	-0.019
807.03	-0.019
807.21	-0.020
807.38	-0.020
807.56	-0.020
807.74	-0.020
807.91	-0.020
808.09	-0.020
808.27	-0.020
808.44	-0.020
808.62	-0.020
808.80	-0.020
808.97	-0.020
809.15	-0.020
809.33	-0.020
809.50	-0.020
809.68	-0.020
809.86	-0.020
810.03	-0.020
810.21	-0.020
810.39	-0.020
810.56	-0.020
810.74	-0.020
810.91	-0.020
811.09	-0.020
811.27	-0.019
811.44	-0.019
811.62	-0.019
811.80	-0.020
811.97	-0.019
812.15	-0.020
812.33	-0.019
812.50	-0.019
812.68	-0.019
812.85	-0.019
813.03	-0.019
813.21	-0.020
813.38	-0.020
813.56	-0.020
813.74	-0.020
813.91	-0.020
814.09	-0.020
814.26	-0.020
814.44	-0.021
814.62	-0.021
814.79	-0.021
814.97	-0.021
815.14	-0.021
815.32	-0.020
815.50	-0.020
815.67	-0.020
815.85	-0.020
816.02	-0.020
816.20	-0.020
816.38	-0.020
816.55	-0.020
816.73	-0.020
816.90	-0.020
817.08	-0.020
817.26	-0.020
817.43	-0.021
817.61	-0.021
817.78	-0.021
817.96	-0.021
818.13	-0.021
818.31	-0.021
818.49	-0.021
818.66	-0.022
818.84	-0.021
819.01	-0.021
819.19	-0.021
819.36	-0.021
819.54	-0.021
819.71	-0.021
819.89	-0.021
820.07	-0.021
820.24	-0.021
820.42	-0.020
820.59	-0.020
820.77	-0.020
820.94	-0.020
821.12	-0.020
821.29	-0.020
821.47	-0.021
821.64	-0.020
821.82	-0.020
822.00	-0.020
822.17	-0.020
822.35	-0.021
822.52	-0.021
822.70	-0.020
822.87	-0.021
823.05	-0.020
823.22	-0.020
823.40	-0.020
823.57	-0.020
823.75	-0.021
823.92	-0.021
824.10	-0.021
824.27	-0.021
824.45	-0.021
824.62	-0.021
824.80	-0.021
824.97	-0.022
825.15	-0.022
825.32	-0.021
825.50	-0.022
825.67	-0.021
825.85	-0.021
826.02	-0.021
826.20	-0.021
826.37	-0.021
826.55	-0.020
826.72	-0.020
826.90	-0.020
827.07	-0.020
827.25	-0.020
827.42	-0.020
827.60	-0.020
827.77	-0.019
827.95	-0.020
828.12	-0.019
828.30	-0.019
828.47	-0.020
828.65	-0.019
828.82	-0.019
829.00	-0.019
829.17	-0.019
829.34	-0.019
829.52	-0.019
829.69	-0.019
829.87	-0.019
830.04	-0.019
830.22	-0.020
830.39	-0.019
830.57	-0.019
830.74	-0.020
830.92	-0.019
831.09	-0.019
831.26	-0.018
831.44	-0.018
831.61	-0.019
831.79	-0.019
831.96	-0.019
832.14	-0.019
832.31	-0.020
832.49	-0.020
832.66	-0.020
832.83	-0.021
833.01	-0.022
833.18	-0.022
833.36	-0.022
833.53	-0.021
833.70	-0.020
833.88	-0.020
834.05	-0.021
834.23	-0.021
834.40	-0.020
834.58	-0.021
834.75	-0.020
834.92	-0.021
835.10	-0.021
835.27	-0.021
835.45	-0.022
835.62	-0.022
835.79	-0.022
835.97	-0.021
836.14	-0.021
836.32	-0.021
836.49	-0.020
836.66	-0.021
836.84	-0.020
837.01	-0.019
837.18	-0.019
837.36	-0.018
837.53	-0.018
837.71	-0.018
837.88	-0.017
838.05	-0.018
838.23	-0.016
838.40	-0.017
838.58	-0.016
838.75	-0.017
838.92	-0.016
839.10	-0.015
839.27	-0.016
839.44	-0.017
839.62	-0.017
839.79	-0.017
839.96	-0.016
840.14	-0.017
840.31	-0.017
840.48	-0.018
840.66	-0.017
840.83	-0.018
841.01	-0.018
841.18	-0.018
841.35	-0.018
841.53	-0.017
841.70	-0.018
841.87	-0.020
842.05	-0.020
842.22	-0.020
842.39	-0.020
842.57	-0.020
842.74	-0.020
842.91	-0.020
843.09	-0.020
843.26	-0.019
843.43	-0.020
843.60	-0.019
843.78	-0.018
843.95	-0.017
844.12	-0.018
844.30	-0.018
844.47	-0.017
844.64	-0.019
844.82	-0.020
844.99	-0.021
845.16	-0.022
845.34	-0.021
845.51	-0.021
845.68	-0.022
845.85	-0.023
846.03	-0.022
846.20	-0.021
846.37	-0.022
846.55	-0.020
846.72	-0.019
846.89	-0.020
847.06	-0.020
847.24	-0.020
847.41	-0.020
847.58	-0.019
847.76	-0.019
847.93	-0.020
848.10	-0.021
848.27	-0.022
848.45	-0.022
848.62	-0.022
848.79	-0.022
848.97	-0.022
849.14	-0.020
849.31	-0.021
849.48	-0.019
849.66	-0.020
849.83	-0.020
850.00	-0.020
850.17	-0.019
850.35	-0.021
850.52	-0.020
850.69	-0.021
850.86	-0.020
851.04	-0.021
851.21	-0.022
851.38	-0.024
851.55	-0.023
851.72	-0.022
851.90	-0.020
852.07	-0.019
852.24	-0.019
852.41	-0.020
852.59	-0.019
852.76	-0.019
852.93	-0.020
853.10	-0.018
853.28	-0.017
853.45	-0.017
853.62	-0.019
853.79	-0.021
853.96	-0.022
854.14	-0.023
854.31	-0.023
854.48	-0.023
854.65	-0.025
854.82	-0.024
855.00	-0.025
855.17	-0.026
855.34	-0.026
855.51	-0.023
855.68	-0.022
855.86	-0.020
856.03	-0.018
856.20	-0.017
856.37	-0.016
856.54	-0.017
856.72	-0.018
856.89	-0.016
857.06	-0.017
857.23	-0.018
857.40	-0.020
857.57	-0.021
857.75	-0.023
857.92	-0.026
858.09	-0.028
858.26	-0.026
858.43	-0.027
858.60	-0.027
858.78	-0.027
858.95	-0.028
859.12	-0.026
859.29	-0.025
859.46	-0.023
859.63	-0.019
859.81	-0.018
859.98	-0.017
860.15	-0.017
860.32	-0.015
860.49	-0.013
860.66	-0.013
860.83	-0.012
861.01	-0.010
861.18	-0.008
861.35	-0.010
861.52	-0.012
861.69	-0.014
861.86	-0.012
862.03	-0.014
862.21	-0.015
862.38	-0.015
862.55	-0.016
862.72	-0.019
862.89	-0.020
863.06	-0.021
863.23	-0.021
863.40	-0.019
863.58	-0.016
863.75	-0.018
863.92	-0.018
864.09	-0.017
864.26	-0.017
864.43	-0.017
864.60	-0.013
864.77	-0.013
864.94	-0.017
865.11	-0.019
865.29	-0.023
865.46	-0.024
865.63	-0.024
865.80	-0.020
865.97	-0.020
866.14	-0.020
866.31	-0.016
866.48	-0.016
866.65	-0.015
866.82	-0.013
866.99	-0.012
867.16	-0.012
867.34	-0.009
867.51	-0.009
867.68	-0.010
867.85	-0.010
868.02	-0.012
868.19	-0.017
868.36	-0.018
868.53	-0.021
868.70	-0.022
868.87	-0.019
869.04	-0.018
869.21	-0.020
869.38	-0.018
869.55	-0.017
869.72	-0.017
869.89	-0.016
870.06	-0.013
870.24	-0.012
870.41	-0.008
870.58	-0.008
870.75	-0.010
870.92	-0.010
871.09	-0.012
871.26	-0.012
871.43	-0.015
871.60	-0.013
871.77	-0.012
871.94	-0.014
872.11	-0.017
872.28	-0.019
872.45	-0.018
872.62	-0.016
872.79	-0.016
872.96	-0.011
873.13	-0.015
873.30	-0.012
873.47	-0.011
873.64	-0.013
873.81	-0.012
873.98	-0.011
874.15	-0.009
874.32	-0.010
874.49	-0.010
874.66	-0.012
874.83	-0.010
875.00	-0.010
875.17	-0.012
875.34	-0.014
875.51	-0.012
875.68	-0.015
875.85	-0.013
876.02	-0.012
876.19	-0.014
876.36	-0.012
876.53	-0.010
876.70	-0.012
876.87	-0.016
877.04	-0.014
877.21	-0.008
877.38	-0.012
877.55	-0.005
877.72	-0.007
877.89	-0.008
878.06	-0.008
878.23	-0.010
878.39	-0.008
878.56	-0.009
878.73	-0.004
878.90	-0.006
879.07	-0.012
879.24	-0.012
879.41	-0.012
879.58	-0.014
879.75	-0.015
879.92	-0.008
880.09	-0.004
880.26	-0.011
880.43	-0.015
880.60	-0.017
880.77	-0.015
880.94	-0.014
881.11	-0.015
881.27	-0.017
881.44	-0.012
881.61	-0.010
881.78	-0.012
881.95	-0.016
882.12	-0.015
882.29	-0.013
882.46	-0.010
882.63	-0.012
882.80	-0.010
882.97	-0.005
883.14	-0.008
883.30	-0.006
883.47	-0.007
883.64	-0.010
883.81	-0.003
883.98	-0.001
884.15	0.002
884.32	0.001
884.49	-0.002
884.66	-0.000
884.82	-0.005
884.99	-0.007
885.16	-0.009
885.33	-0.007
885.50	-0.005
885.67	-0.012
885.84	-0.014
886.01	-0.016
886.17	-0.020
886.34	-0.018
886.51	-0.020
886.68	-0.017
886.85	-0.018
887.02	-0.024
887.19	-0.027
887.36	-0.027
887.52	-0.031
887.69	-0.029
887.86	-0.030
888.03	-0.023
888.20	-0.022
888.37	-0.033
888.54	-0.033
888.70	-0.031
888.87	-0.030
889.04	-0.025
889.21	-0.023
889.38	-0.023
889.55	-0.015
889.71	-0.054
889.88	0.022
890.05	0.056
890.22	-0.054
890.39	0.063
>>>>>End Processed Spectral Data<<<<<
