SpectraSuite Data File
++++++++++++++++++++++++++++++++++++
Date: Mon Jun 15 09:38:53 PDT 2015
User: introlabs
Dark Spectrum Present: Yes
Reference Spectrum Present: Yes
Number of Sampled Component Spectra: 1
Spectrometers: USB4H08886
Integration Time (usec): 44366 (USB4H08886)
Spectra Averaged: 20 (USB4H08886)
Boxcar Smoothing: 5 (USB4H08886)
Correct for Electrical Dark: Yes (USB4H08886)
Strobe/Lamp Enabled: No (USB4H08886)
Correct for Detector Non-linearity: Yes (USB4H08886)
Correct for Stray Light: Yes (USB4H08886)
Number of Pixels in Processed Spectrum: 3648
>>>>>Begin Processed Spectral Data<<<<<
178.14	-0.000
178.36	-0.000
178.57	-0.000
178.79	-0.000
179.01	-1.267
179.22	-0.022
179.44	-0.390
179.65	-0.000
179.87	-0.000
180.08	1.041
180.30	0.427
180.52	0.236
180.73	-0.023
180.95	-0.013
181.16	0.036
181.38	-0.014
181.59	-0.019
181.81	-0.019
182.03	0.004
182.24	0.013
182.46	0.024
182.67	0.017
182.89	0.022
183.10	0.027
183.32	0.021
183.54	0.013
183.75	0.027
183.97	0.028
184.18	0.025
184.40	0.018
184.61	0.022
184.83	0.021
185.04	0.028
185.26	0.028
185.48	0.024
185.69	0.027
185.91	0.035
186.12	0.024
186.34	0.034
186.55	0.030
186.77	0.031
186.98	0.023
187.20	0.017
187.42	0.018
187.63	0.017
187.85	0.017
188.06	0.020
188.28	0.014
188.49	0.016
188.71	0.003
188.92	0.014
189.14	0.015
189.36	0.029
189.57	0.031
189.79	0.029
190.00	0.029
190.22	0.027
190.43	0.026
190.65	0.022
190.86	0.030
191.08	0.038
191.29	0.030
191.51	0.030
191.72	0.018
191.94	0.015
192.16	0.014
192.37	0.014
192.59	0.025
192.80	0.020
193.02	0.019
193.23	0.019
193.45	0.018
193.66	0.023
193.88	0.025
194.09	0.029
194.31	0.029
194.52	0.026
194.74	0.017
194.95	0.005
195.17	0.015
195.38	0.011
195.60	0.001
195.81	0.005
196.03	0.002
196.25	0.009
196.46	0.004
196.68	0.007
196.89	0.012
197.11	0.018
197.32	0.019
197.54	0.010
197.75	0.030
197.97	0.033
198.18	0.021
198.40	0.021
198.61	0.008
198.83	0.009
199.04	0.015
199.26	0.007
199.47	0.003
199.69	0.013
199.90	0.026
200.12	0.014
200.33	0.013
200.55	0.021
200.76	0.013
200.98	0.011
201.19	0.013
201.41	0.001
201.62	0.006
201.84	0.013
202.05	0.005
202.27	-0.008
202.48	-0.007
202.70	-0.006
202.91	-0.007
203.13	-0.003
203.34	-0.005
203.56	-0.006
203.77	-0.000
203.99	-0.009
204.20	-0.010
204.42	-0.013
204.63	-0.001
204.85	-0.002
205.06	-0.004
205.28	0.000
205.49	-0.003
205.71	0.010
205.92	0.015
206.14	0.019
206.35	0.033
206.56	0.035
206.78	0.039
206.99	0.035
207.21	0.038
207.42	0.042
207.64	0.040
207.85	0.052
208.07	0.043
208.28	0.040
208.50	0.035
208.71	0.031
208.93	0.028
209.14	0.030
209.36	0.026
209.57	0.023
209.79	0.021
210.00	0.022
210.22	0.021
210.43	0.026
210.64	0.028
210.86	0.021
211.07	0.018
211.29	0.019
211.50	0.016
211.72	0.013
211.93	0.011
212.15	0.016
212.36	0.013
212.58	0.010
212.79	0.010
213.01	0.000
213.22	0.012
213.43	0.010
213.65	0.008
213.86	0.017
214.08	0.025
214.29	0.025
214.51	0.023
214.72	0.021
214.94	0.020
215.15	0.024
215.36	0.026
215.58	0.022
215.79	0.022
216.01	0.028
216.22	0.023
216.44	0.017
216.65	0.021
216.87	0.025
217.08	0.028
217.29	0.030
217.51	0.029
217.72	0.032
217.94	0.033
218.15	0.040
218.37	0.036
218.58	0.036
218.80	0.036
219.01	0.029
219.22	0.028
219.44	0.028
219.65	0.027
219.87	0.025
220.08	0.022
220.30	0.015
220.51	0.007
220.72	0.007
220.94	-0.001
221.15	-0.000
221.37	-0.000
221.58	-0.001
221.79	-0.000
222.01	-0.007
222.22	-0.012
222.44	-0.010
222.65	-0.003
222.87	-0.003
223.08	-0.004
223.29	0.003
223.51	0.001
223.72	-0.000
223.94	-0.006
224.15	-0.009
224.36	0.000
224.58	-0.003
224.79	-0.000
225.01	-0.004
225.22	-0.004
225.44	-0.002
225.65	-0.004
225.86	0.001
226.08	0.004
226.29	0.002
226.51	0.003
226.72	-0.001
226.93	0.006
227.15	0.004
227.36	0.004
227.58	0.006
227.79	0.008
228.00	0.004
228.22	-0.005
228.43	-0.006
228.65	-0.005
228.86	-0.004
229.07	-0.006
229.29	-0.012
229.50	-0.012
229.72	-0.014
229.93	-0.017
230.14	-0.018
230.36	-0.018
230.57	-0.017
230.78	-0.019
231.00	-0.020
231.21	-0.025
231.43	-0.025
231.64	-0.023
231.85	-0.023
232.07	-0.024
232.28	-0.023
232.50	-0.028
232.71	-0.029
232.92	-0.029
233.14	-0.030
233.35	-0.028
233.56	-0.029
233.78	-0.028
233.99	-0.030
234.21	-0.032
234.42	-0.030
234.63	-0.030
234.85	-0.030
235.06	-0.031
235.27	-0.030
235.49	-0.029
235.70	-0.029
235.91	-0.030
236.13	-0.030
236.34	-0.031
236.56	-0.032
236.77	-0.032
236.98	-0.031
237.20	-0.031
237.41	-0.029
237.62	-0.028
237.84	-0.028
238.05	-0.028
238.26	-0.028
238.48	-0.028
238.69	-0.028
238.91	-0.026
239.12	-0.027
239.33	-0.026
239.55	-0.025
239.76	-0.025
239.97	-0.025
240.19	-0.024
240.40	-0.023
240.61	-0.022
240.83	-0.021
241.04	-0.020
241.25	-0.020
241.47	-0.019
241.68	-0.018
241.89	-0.018
242.11	-0.018
242.32	-0.018
242.53	-0.018
242.75	-0.017
242.96	-0.017
243.17	-0.016
243.39	-0.016
243.60	-0.016
243.81	-0.016
244.03	-0.016
244.24	-0.015
244.45	-0.014
244.67	-0.014
244.88	-0.013
245.09	-0.013
245.31	-0.012
245.52	-0.012
245.73	-0.012
245.95	-0.012
246.16	-0.010
246.37	-0.011
246.59	-0.010
246.80	-0.010
247.01	-0.010
247.23	-0.010
247.44	-0.010
247.65	-0.010
247.87	-0.009
248.08	-0.009
248.29	-0.009
248.51	-0.009
248.72	-0.008
248.93	-0.008
249.15	-0.008
249.36	-0.008
249.57	-0.009
249.78	-0.008
250.00	-0.008
250.21	-0.008
250.42	-0.008
250.64	-0.008
250.85	-0.007
251.06	-0.007
251.28	-0.007
251.49	-0.007
251.70	-0.007
251.92	-0.007
252.13	-0.006
252.34	-0.006
252.55	-0.006
252.77	-0.006
252.98	-0.006
253.19	-0.006
253.41	-0.005
253.62	-0.005
253.83	-0.005
254.05	-0.005
254.26	-0.005
254.47	-0.006
254.68	-0.006
254.90	-0.006
255.11	-0.005
255.32	-0.005
255.54	-0.005
255.75	-0.005
255.96	-0.005
256.17	-0.005
256.39	-0.005
256.60	-0.005
256.81	-0.005
257.03	-0.005
257.24	-0.005
257.45	-0.005
257.66	-0.006
257.88	-0.006
258.09	-0.006
258.30	-0.006
258.51	-0.007
258.73	-0.007
258.94	-0.007
259.15	-0.007
259.37	-0.007
259.58	-0.007
259.79	-0.007
260.00	-0.007
260.22	-0.007
260.43	-0.007
260.64	-0.007
260.85	-0.007
261.07	-0.008
261.28	-0.008
261.49	-0.008
261.71	-0.008
261.92	-0.008
262.13	-0.009
262.34	-0.009
262.56	-0.010
262.77	-0.010
262.98	-0.010
263.19	-0.010
263.41	-0.011
263.62	-0.011
263.83	-0.011
264.04	-0.012
264.26	-0.012
264.47	-0.012
264.68	-0.013
264.89	-0.013
265.11	-0.013
265.32	-0.013
265.53	-0.013
265.74	-0.013
265.96	-0.013
266.17	-0.013
266.38	-0.013
266.59	-0.013
266.81	-0.014
267.02	-0.014
267.23	-0.015
267.44	-0.015
267.65	-0.016
267.87	-0.017
268.08	-0.017
268.29	-0.017
268.50	-0.018
268.72	-0.018
268.93	-0.018
269.14	-0.018
269.35	-0.018
269.57	-0.018
269.78	-0.018
269.99	-0.018
270.20	-0.018
270.41	-0.018
270.63	-0.018
270.84	-0.019
271.05	-0.019
271.26	-0.020
271.48	-0.020
271.69	-0.020
271.90	-0.021
272.11	-0.021
272.32	-0.022
272.54	-0.022
272.75	-0.022
272.96	-0.022
273.17	-0.022
273.39	-0.022
273.60	-0.023
273.81	-0.023
274.02	-0.023
274.23	-0.023
274.45	-0.023
274.66	-0.023
274.87	-0.023
275.08	-0.023
275.29	-0.024
275.51	-0.024
275.72	-0.024
275.93	-0.024
276.14	-0.023
276.35	-0.023
276.57	-0.023
276.78	-0.023
276.99	-0.023
277.20	-0.023
277.41	-0.023
277.63	-0.023
277.84	-0.023
278.05	-0.023
278.26	-0.022
278.47	-0.023
278.69	-0.023
278.90	-0.022
279.11	-0.022
279.32	-0.022
279.53	-0.022
279.74	-0.022
279.96	-0.021
280.17	-0.021
280.38	-0.021
280.59	-0.021
280.80	-0.021
281.02	-0.020
281.23	-0.020
281.44	-0.020
281.65	-0.020
281.86	-0.020
282.07	-0.020
282.29	-0.019
282.50	-0.019
282.71	-0.019
282.92	-0.019
283.13	-0.018
283.35	-0.018
283.56	-0.018
283.77	-0.018
283.98	-0.018
284.19	-0.017
284.40	-0.017
284.62	-0.017
284.83	-0.016
285.04	-0.016
285.25	-0.015
285.46	-0.014
285.67	-0.014
285.88	-0.013
286.10	-0.013
286.31	-0.012
286.52	-0.011
286.73	-0.011
286.94	-0.010
287.15	-0.009
287.37	-0.009
287.58	-0.008
287.79	-0.008
288.00	-0.007
288.21	-0.007
288.42	-0.006
288.63	-0.006
288.85	-0.005
289.06	-0.004
289.27	-0.004
289.48	-0.004
289.69	-0.003
289.90	-0.003
290.11	-0.002
290.33	-0.002
290.54	-0.001
290.75	-0.001
290.96	-0.001
291.17	-0.000
291.38	-0.000
291.59	0.000
291.81	0.001
292.02	0.001
292.23	0.001
292.44	0.002
292.65	0.002
292.86	0.002
293.07	0.002
293.28	0.002
293.50	0.003
293.71	0.003
293.92	0.003
294.13	0.003
294.34	0.004
294.55	0.004
294.76	0.004
294.97	0.004
295.19	0.004
295.40	0.004
295.61	0.004
295.82	0.004
296.03	0.004
296.24	0.004
296.45	0.004
296.66	0.004
296.87	0.004
297.09	0.004
297.30	0.004
297.51	0.004
297.72	0.004
297.93	0.005
298.14	0.005
298.35	0.005
298.56	0.005
298.77	0.005
298.99	0.005
299.20	0.005
299.41	0.005
299.62	0.005
299.83	0.005
300.04	0.005
300.25	0.005
300.46	0.005
300.67	0.005
300.88	0.005
301.10	0.005
301.31	0.005
301.52	0.005
301.73	0.005
301.94	0.005
302.15	0.005
302.36	0.005
302.57	0.005
302.78	0.005
302.99	0.005
303.20	0.005
303.41	0.005
303.63	0.005
303.84	0.005
304.05	0.005
304.26	0.005
304.47	0.005
304.68	0.005
304.89	0.005
305.10	0.005
305.31	0.005
305.52	0.005
305.73	0.005
305.94	0.005
306.15	0.005
306.37	0.005
306.58	0.005
306.79	0.005
307.00	0.005
307.21	0.005
307.42	0.005
307.63	0.005
307.84	0.005
308.05	0.005
308.26	0.005
308.47	0.005
308.68	0.005
308.89	0.005
309.10	0.005
309.31	0.005
309.52	0.005
309.73	0.005
309.95	0.005
310.16	0.004
310.37	0.004
310.58	0.004
310.79	0.004
311.00	0.004
311.21	0.004
311.42	0.004
311.63	0.004
311.84	0.004
312.05	0.004
312.26	0.004
312.47	0.004
312.68	0.005
312.89	0.005
313.10	0.005
313.31	0.005
313.52	0.005
313.73	0.005
313.94	0.005
314.15	0.005
314.36	0.005
314.57	0.005
314.78	0.005
314.99	0.005
315.21	0.005
315.42	0.005
315.63	0.005
315.84	0.005
316.05	0.005
316.26	0.005
316.47	0.005
316.68	0.005
316.89	0.005
317.10	0.005
317.31	0.005
317.52	0.005
317.73	0.005
317.94	0.005
318.15	0.005
318.36	0.005
318.57	0.005
318.78	0.005
318.99	0.005
319.20	0.005
319.41	0.005
319.62	0.005
319.83	0.005
320.04	0.005
320.25	0.005
320.46	0.005
320.67	0.005
320.88	0.005
321.09	0.005
321.30	0.005
321.51	0.004
321.72	0.004
321.93	0.004
322.14	0.004
322.35	0.004
322.56	0.004
322.77	0.004
322.98	0.004
323.19	0.004
323.40	0.004
323.61	0.004
323.82	0.004
324.03	0.004
324.24	0.004
324.45	0.005
324.66	0.005
324.87	0.005
325.08	0.005
325.29	0.004
325.50	0.004
325.71	0.004
325.92	0.005
326.13	0.004
326.34	0.004
326.55	0.004
326.76	0.004
326.97	0.004
327.18	0.004
327.39	0.005
327.60	0.005
327.80	0.005
328.01	0.005
328.22	0.005
328.43	0.005
328.64	0.005
328.85	0.005
329.06	0.005
329.27	0.005
329.48	0.005
329.69	0.005
329.90	0.005
330.11	0.005
330.32	0.005
330.53	0.005
330.74	0.005
330.95	0.005
331.16	0.005
331.37	0.005
331.58	0.005
331.79	0.005
332.00	0.005
332.21	0.005
332.42	0.005
332.63	0.005
332.83	0.005
333.04	0.005
333.25	0.005
333.46	0.005
333.67	0.005
333.88	0.005
334.09	0.005
334.30	0.005
334.51	0.005
334.72	0.005
334.93	0.005
335.14	0.005
335.35	0.005
335.56	0.006
335.77	0.005
335.98	0.006
336.18	0.006
336.39	0.006
336.60	0.006
336.81	0.006
337.02	0.006
337.23	0.006
337.44	0.006
337.65	0.006
337.86	0.006
338.07	0.006
338.28	0.006
338.49	0.006
338.70	0.006
338.91	0.006
339.11	0.006
339.32	0.006
339.53	0.006
339.74	0.006
339.95	0.006
340.16	0.006
340.37	0.006
340.58	0.006
340.79	0.006
341.00	0.006
341.21	0.006
341.41	0.006
341.62	0.006
341.83	0.006
342.04	0.006
342.25	0.006
342.46	0.006
342.67	0.006
342.88	0.006
343.09	0.006
343.30	0.007
343.50	0.007
343.71	0.007
343.92	0.007
344.13	0.007
344.34	0.007
344.55	0.007
344.76	0.007
344.97	0.007
345.18	0.007
345.38	0.007
345.59	0.007
345.80	0.007
346.01	0.007
346.22	0.007
346.43	0.007
346.64	0.007
346.85	0.007
347.06	0.007
347.26	0.007
347.47	0.007
347.68	0.007
347.89	0.007
348.10	0.007
348.31	0.007
348.52	0.007
348.73	0.007
348.93	0.007
349.14	0.007
349.35	0.007
349.56	0.007
349.77	0.007
349.98	0.007
350.19	0.007
350.39	0.008
350.60	0.008
350.81	0.008
351.02	0.008
351.23	0.008
351.44	0.008
351.65	0.008
351.86	0.008
352.06	0.008
352.27	0.008
352.48	0.008
352.69	0.008
352.90	0.008
353.11	0.008
353.31	0.008
353.52	0.008
353.73	0.008
353.94	0.008
354.15	0.008
354.36	0.008
354.57	0.008
354.77	0.008
354.98	0.009
355.19	0.009
355.40	0.009
355.61	0.009
355.82	0.009
356.02	0.009
356.23	0.009
356.44	0.009
356.65	0.009
356.86	0.009
357.07	0.009
357.27	0.009
357.48	0.009
357.69	0.009
357.90	0.009
358.11	0.009
358.32	0.009
358.52	0.009
358.73	0.009
358.94	0.009
359.15	0.009
359.36	0.009
359.56	0.009
359.77	0.009
359.98	0.009
360.19	0.009
360.40	0.009
360.61	0.009
360.81	0.009
361.02	0.009
361.23	0.009
361.44	0.009
361.65	0.009
361.85	0.009
362.06	0.009
362.27	0.009
362.48	0.009
362.69	0.009
362.89	0.009
363.10	0.009
363.31	0.009
363.52	0.009
363.73	0.009
363.93	0.010
364.14	0.010
364.35	0.010
364.56	0.009
364.77	0.009
364.97	0.009
365.18	0.010
365.39	0.009
365.60	0.010
365.81	0.010
366.01	0.010
366.22	0.010
366.43	0.010
366.64	0.010
366.84	0.010
367.05	0.010
367.26	0.010
367.47	0.010
367.68	0.010
367.88	0.010
368.09	0.010
368.30	0.010
368.51	0.010
368.71	0.010
368.92	0.010
369.13	0.010
369.34	0.010
369.55	0.010
369.75	0.010
369.96	0.010
370.17	0.010
370.38	0.010
370.58	0.010
370.79	0.010
371.00	0.010
371.21	0.010
371.41	0.010
371.62	0.010
371.83	0.010
372.04	0.010
372.24	0.010
372.45	0.010
372.66	0.010
372.87	0.010
373.07	0.010
373.28	0.010
373.49	0.010
373.70	0.010
373.90	0.010
374.11	0.010
374.32	0.010
374.53	0.010
374.73	0.010
374.94	0.010
375.15	0.010
375.36	0.010
375.56	0.010
375.77	0.010
375.98	0.010
376.19	0.010
376.39	0.010
376.60	0.010
376.81	0.010
377.02	0.010
377.22	0.010
377.43	0.010
377.64	0.010
377.84	0.010
378.05	0.010
378.26	0.010
378.47	0.010
378.67	0.010
378.88	0.010
379.09	0.010
379.30	0.010
379.50	0.010
379.71	0.010
379.92	0.010
380.12	0.010
380.33	0.010
380.54	0.010
380.75	0.010
380.95	0.010
381.16	0.010
381.37	0.010
381.57	0.010
381.78	0.010
381.99	0.010
382.20	0.010
382.40	0.010
382.61	0.010
382.82	0.010
383.02	0.010
383.23	0.010
383.44	0.011
383.64	0.010
383.85	0.011
384.06	0.010
384.27	0.010
384.47	0.010
384.68	0.010
384.89	0.010
385.09	0.010
385.30	0.010
385.51	0.010
385.71	0.010
385.92	0.010
386.13	0.010
386.33	0.010
386.54	0.010
386.75	0.010
386.95	0.010
387.16	0.010
387.37	0.010
387.58	0.010
387.78	0.010
387.99	0.010
388.20	0.010
388.40	0.010
388.61	0.010
388.82	0.010
389.02	0.010
389.23	0.010
389.44	0.010
389.64	0.010
389.85	0.010
390.06	0.010
390.26	0.010
390.47	0.010
390.68	0.010
390.88	0.010
391.09	0.010
391.30	0.010
391.50	0.010
391.71	0.010
391.92	0.010
392.12	0.010
392.33	0.010
392.53	0.010
392.74	0.010
392.95	0.010
393.15	0.010
393.36	0.010
393.57	0.010
393.77	0.010
393.98	0.010
394.19	0.010
394.39	0.011
394.60	0.011
394.81	0.010
395.01	0.010
395.22	0.010
395.43	0.010
395.63	0.010
395.84	0.010
396.04	0.010
396.25	0.010
396.46	0.010
396.66	0.010
396.87	0.010
397.08	0.009
397.28	0.010
397.49	0.010
397.69	0.010
397.90	0.010
398.11	0.010
398.31	0.010
398.52	0.010
398.73	0.010
398.93	0.010
399.14	0.010
399.34	0.010
399.55	0.010
399.76	0.010
399.96	0.010
400.17	0.010
400.37	0.010
400.58	0.010
400.79	0.010
400.99	0.010
401.20	0.010
401.41	0.010
401.61	0.010
401.82	0.010
402.02	0.010
402.23	0.010
402.44	0.010
402.64	0.010
402.85	0.010
403.05	0.010
403.26	0.010
403.47	0.010
403.67	0.010
403.88	0.010
404.08	0.010
404.29	0.010
404.50	0.010
404.70	0.010
404.91	0.010
405.11	0.010
405.32	0.010
405.52	0.010
405.73	0.010
405.94	0.010
406.14	0.009
406.35	0.009
406.55	0.009
406.76	0.009
406.97	0.009
407.17	0.009
407.38	0.009
407.58	0.009
407.79	0.009
407.99	0.009
408.20	0.009
408.41	0.010
408.61	0.009
408.82	0.010
409.02	0.010
409.23	0.010
409.43	0.009
409.64	0.009
409.84	0.009
410.05	0.009
410.26	0.010
410.46	0.010
410.67	0.009
410.87	0.010
411.08	0.010
411.28	0.009
411.49	0.010
411.69	0.009
411.90	0.010
412.11	0.010
412.31	0.009
412.52	0.009
412.72	0.009
412.93	0.009
413.13	0.009
413.34	0.009
413.54	0.009
413.75	0.009
413.95	0.010
414.16	0.009
414.37	0.009
414.57	0.010
414.78	0.010
414.98	0.010
415.19	0.010
415.39	0.010
415.60	0.010
415.80	0.009
416.01	0.009
416.21	0.009
416.42	0.009
416.62	0.009
416.83	0.009
417.03	0.009
417.24	0.009
417.44	0.009
417.65	0.009
417.86	0.009
418.06	0.009
418.27	0.009
418.47	0.009
418.68	0.009
418.88	0.009
419.09	0.009
419.29	0.009
419.50	0.009
419.70	0.009
419.91	0.009
420.11	0.009
420.32	0.009
420.52	0.009
420.73	0.009
420.93	0.009
421.14	0.009
421.34	0.009
421.55	0.009
421.75	0.009
421.96	0.009
422.16	0.009
422.37	0.009
422.57	0.009
422.78	0.009
422.98	0.009
423.19	0.009
423.39	0.009
423.60	0.009
423.80	0.009
424.01	0.009
424.21	0.010
424.42	0.010
424.62	0.010
424.83	0.010
425.03	0.010
425.23	0.010
425.44	0.010
425.64	0.010
425.85	0.010
426.05	0.010
426.26	0.010
426.46	0.009
426.67	0.009
426.87	0.009
427.08	0.009
427.28	0.009
427.49	0.009
427.69	0.009
427.90	0.009
428.10	0.009
428.31	0.009
428.51	0.009
428.71	0.009
428.92	0.008
429.12	0.009
429.33	0.009
429.53	0.009
429.74	0.009
429.94	0.009
430.15	0.009
430.35	0.009
430.56	0.009
430.76	0.009
430.96	0.009
431.17	0.009
431.37	0.009
431.58	0.009
431.78	0.009
431.99	0.010
432.19	0.010
432.40	0.010
432.60	0.010
432.80	0.010
433.01	0.010
433.21	0.010
433.42	0.009
433.62	0.009
433.83	0.009
434.03	0.009
434.23	0.009
434.44	0.009
434.64	0.009
434.85	0.009
435.05	0.009
435.26	0.009
435.46	0.009
435.66	0.009
435.87	0.009
436.07	0.009
436.28	0.009
436.48	0.009
436.69	0.009
436.89	0.009
437.09	0.009
437.30	0.009
437.50	0.009
437.71	0.009
437.91	0.009
438.11	0.009
438.32	0.009
438.52	0.009
438.73	0.009
438.93	0.009
439.13	0.009
439.34	0.009
439.54	0.009
439.75	0.009
439.95	0.009
440.15	0.009
440.36	0.009
440.56	0.009
440.77	0.009
440.97	0.009
441.17	0.009
441.38	0.009
441.58	0.009
441.79	0.009
441.99	0.009
442.19	0.009
442.40	0.009
442.60	0.009
442.81	0.009
443.01	0.009
443.21	0.009
443.42	0.009
443.62	0.009
443.82	0.009
444.03	0.009
444.23	0.009
444.44	0.009
444.64	0.009
444.84	0.009
445.05	0.009
445.25	0.009
445.45	0.009
445.66	0.009
445.86	0.009
446.06	0.009
446.27	0.009
446.47	0.009
446.68	0.009
446.88	0.009
447.08	0.009
447.29	0.009
447.49	0.009
447.69	0.009
447.90	0.009
448.10	0.009
448.30	0.009
448.51	0.009
448.71	0.009
448.91	0.009
449.12	0.009
449.32	0.009
449.52	0.009
449.73	0.009
449.93	0.009
450.14	0.009
450.34	0.009
450.54	0.009
450.75	0.009
450.95	0.009
451.15	0.009
451.36	0.009
451.56	0.009
451.76	0.009
451.97	0.009
452.17	0.009
452.37	0.009
452.58	0.009
452.78	0.009
452.98	0.009
453.19	0.009
453.39	0.009
453.59	0.009
453.79	0.009
454.00	0.009
454.20	0.009
454.40	0.009
454.61	0.009
454.81	0.009
455.01	0.009
455.22	0.009
455.42	0.009
455.62	0.009
455.83	0.009
456.03	0.009
456.23	0.009
456.44	0.009
456.64	0.009
456.84	0.009
457.04	0.009
457.25	0.009
457.45	0.009
457.65	0.009
457.86	0.009
458.06	0.009
458.26	0.008
458.47	0.009
458.67	0.009
458.87	0.009
459.07	0.008
459.28	0.008
459.48	0.009
459.68	0.009
459.89	0.009
460.09	0.009
460.29	0.009
460.49	0.009
460.70	0.009
460.90	0.009
461.10	0.009
461.31	0.009
461.51	0.009
461.71	0.009
461.91	0.009
462.12	0.009
462.32	0.009
462.52	0.009
462.72	0.009
462.93	0.009
463.13	0.008
463.33	0.008
463.53	0.008
463.74	0.008
463.94	0.008
464.14	0.008
464.35	0.008
464.55	0.008
464.75	0.008
464.95	0.008
465.16	0.008
465.36	0.008
465.56	0.009
465.76	0.008
465.97	0.008
466.17	0.008
466.37	0.008
466.57	0.008
466.78	0.009
466.98	0.009
467.18	0.009
467.38	0.009
467.59	0.009
467.79	0.009
467.99	0.009
468.19	0.009
468.39	0.009
468.60	0.009
468.80	0.009
469.00	0.009
469.20	0.009
469.41	0.008
469.61	0.009
469.81	0.008
470.01	0.008
470.22	0.008
470.42	0.008
470.62	0.008
470.82	0.008
471.02	0.009
471.23	0.008
471.43	0.008
471.63	0.008
471.83	0.008
472.04	0.008
472.24	0.008
472.44	0.008
472.64	0.008
472.84	0.008
473.05	0.008
473.25	0.007
473.45	0.007
473.65	0.007
473.85	0.007
474.06	0.007
474.26	0.007
474.46	0.008
474.66	0.008
474.86	0.008
475.07	0.008
475.27	0.008
475.47	0.008
475.67	0.008
475.87	0.008
476.08	0.008
476.28	0.008
476.48	0.008
476.68	0.008
476.88	0.008
477.09	0.008
477.29	0.008
477.49	0.008
477.69	0.008
477.89	0.008
478.09	0.008
478.30	0.008
478.50	0.008
478.70	0.008
478.90	0.008
479.10	0.007
479.31	0.007
479.51	0.007
479.71	0.007
479.91	0.007
480.11	0.007
480.31	0.007
480.52	0.008
480.72	0.008
480.92	0.008
481.12	0.007
481.32	0.008
481.52	0.008
481.72	0.007
481.93	0.007
482.13	0.007
482.33	0.007
482.53	0.007
482.73	0.007
482.93	0.007
483.14	0.007
483.34	0.007
483.54	0.007
483.74	0.007
483.94	0.007
484.14	0.007
484.34	0.007
484.55	0.007
484.75	0.008
484.95	0.008
485.15	0.008
485.35	0.008
485.55	0.008
485.75	0.008
485.96	0.008
486.16	0.008
486.36	0.008
486.56	0.008
486.76	0.008
486.96	0.008
487.16	0.008
487.36	0.008
487.57	0.009
487.77	0.008
487.97	0.008
488.17	0.008
488.37	0.008
488.57	0.009
488.77	0.009
488.97	0.009
489.18	0.009
489.38	0.009
489.58	0.009
489.78	0.009
489.98	0.009
490.18	0.009
490.38	0.009
490.58	0.009
490.78	0.009
490.98	0.009
491.19	0.009
491.39	0.009
491.59	0.009
491.79	0.009
491.99	0.008
492.19	0.008
492.39	0.008
492.59	0.008
492.79	0.008
492.99	0.008
493.20	0.008
493.40	0.008
493.60	0.008
493.80	0.008
494.00	0.008
494.20	0.008
494.40	0.008
494.60	0.008
494.80	0.008
495.00	0.008
495.20	0.008
495.40	0.008
495.61	0.009
495.81	0.009
496.01	0.009
496.21	0.009
496.41	0.009
496.61	0.009
496.81	0.009
497.01	0.009
497.21	0.009
497.41	0.009
497.61	0.009
497.81	0.009
498.01	0.009
498.21	0.009
498.41	0.009
498.61	0.009
498.82	0.009
499.02	0.009
499.22	0.009
499.42	0.009
499.62	0.009
499.82	0.009
500.02	0.009
500.22	0.009
500.42	0.008
500.62	0.008
500.82	0.008
501.02	0.008
501.22	0.008
501.42	0.008
501.62	0.008
501.82	0.008
502.02	0.008
502.22	0.008
502.42	0.009
502.62	0.009
502.82	0.009
503.02	0.009
503.22	0.009
503.42	0.009
503.63	0.009
503.83	0.009
504.03	0.009
504.23	0.009
504.43	0.009
504.63	0.009
504.83	0.009
505.03	0.009
505.23	0.009
505.43	0.009
505.63	0.009
505.83	0.009
506.03	0.009
506.23	0.009
506.43	0.009
506.63	0.009
506.83	0.009
507.03	0.009
507.23	0.009
507.43	0.009
507.63	0.009
507.83	0.009
508.03	0.009
508.23	0.009
508.43	0.009
508.63	0.009
508.83	0.009
509.03	0.009
509.23	0.009
509.43	0.009
509.63	0.009
509.83	0.009
510.03	0.009
510.23	0.009
510.43	0.009
510.63	0.009
510.83	0.009
511.03	0.009
511.23	0.009
511.43	0.009
511.63	0.009
511.83	0.009
512.03	0.009
512.22	0.009
512.42	0.009
512.62	0.009
512.82	0.009
513.02	0.009
513.22	0.009
513.42	0.009
513.62	0.009
513.82	0.009
514.02	0.009
514.22	0.009
514.42	0.009
514.62	0.009
514.82	0.009
515.02	0.009
515.22	0.009
515.42	0.009
515.62	0.009
515.82	0.009
516.02	0.009
516.22	0.009
516.42	0.009
516.62	0.009
516.82	0.009
517.01	0.009
517.21	0.009
517.41	0.009
517.61	0.009
517.81	0.009
518.01	0.009
518.21	0.009
518.41	0.010
518.61	0.010
518.81	0.010
519.01	0.010
519.21	0.010
519.41	0.010
519.61	0.010
519.81	0.010
520.00	0.010
520.20	0.010
520.40	0.010
520.60	0.010
520.80	0.009
521.00	0.010
521.20	0.009
521.40	0.009
521.60	0.009
521.80	0.009
522.00	0.009
522.20	0.009
522.39	0.009
522.59	0.009
522.79	0.009
522.99	0.009
523.19	0.009
523.39	0.009
523.59	0.009
523.79	0.009
523.99	0.009
524.19	0.009
524.38	0.009
524.58	0.009
524.78	0.010
524.98	0.010
525.18	0.009
525.38	0.009
525.58	0.009
525.78	0.009
525.98	0.009
526.18	0.009
526.37	0.009
526.57	0.009
526.77	0.009
526.97	0.009
527.17	0.009
527.37	0.009
527.57	0.009
527.77	0.009
527.96	0.009
528.16	0.009
528.36	0.009
528.56	0.009
528.76	0.009
528.96	0.009
529.16	0.009
529.36	0.009
529.55	0.009
529.75	0.009
529.95	0.010
530.15	0.010
530.35	0.010
530.55	0.010
530.75	0.010
530.94	0.010
531.14	0.010
531.34	0.010
531.54	0.010
531.74	0.010
531.94	0.010
532.13	0.010
532.33	0.009
532.53	0.009
532.73	0.009
532.93	0.009
533.13	0.009
533.33	0.009
533.52	0.009
533.72	0.010
533.92	0.010
534.12	0.010
534.32	0.010
534.52	0.010
534.71	0.010
534.91	0.010
535.11	0.010
535.31	0.010
535.51	0.010
535.71	0.009
535.90	0.010
536.10	0.009
536.30	0.010
536.50	0.009
536.70	0.009
536.89	0.009
537.09	0.009
537.29	0.009
537.49	0.009
537.69	0.009
537.89	0.009
538.08	0.009
538.28	0.009
538.48	0.009
538.68	0.009
538.88	0.010
539.07	0.010
539.27	0.010
539.47	0.010
539.67	0.010
539.87	0.010
540.06	0.010
540.26	0.010
540.46	0.010
540.66	0.010
540.86	0.010
541.05	0.010
541.25	0.010
541.45	0.010
541.65	0.010
541.84	0.010
542.04	0.010
542.24	0.010
542.44	0.010
542.64	0.009
542.83	0.009
543.03	0.009
543.23	0.009
543.43	0.009
543.62	0.009
543.82	0.009
544.02	0.009
544.22	0.009
544.42	0.009
544.61	0.009
544.81	0.009
545.01	0.009
545.21	0.009
545.40	0.009
545.60	0.009
545.80	0.009
546.00	0.010
546.19	0.010
546.39	0.010
546.59	0.010
546.79	0.010
546.98	0.010
547.18	0.010
547.38	0.010
547.58	0.010
547.77	0.010
547.97	0.010
548.17	0.010
548.37	0.010
548.56	0.010
548.76	0.010
548.96	0.010
549.16	0.010
549.35	0.010
549.55	0.010
549.75	0.010
549.95	0.010
550.14	0.010
550.34	0.010
550.54	0.010
550.73	0.010
550.93	0.010
551.13	0.010
551.33	0.010
551.52	0.010
551.72	0.010
551.92	0.010
552.12	0.010
552.31	0.010
552.51	0.010
552.71	0.010
552.90	0.009
553.10	0.009
553.30	0.010
553.50	0.010
553.69	0.010
553.89	0.009
554.09	0.010
554.28	0.010
554.48	0.010
554.68	0.010
554.87	0.010
555.07	0.010
555.27	0.010
555.47	0.010
555.66	0.010
555.86	0.010
556.06	0.010
556.25	0.010
556.45	0.011
556.65	0.011
556.84	0.011
557.04	0.011
557.24	0.011
557.43	0.011
557.63	0.010
557.83	0.010
558.02	0.010
558.22	0.010
558.42	0.010
558.61	0.010
558.81	0.010
559.01	0.010
559.21	0.009
559.40	0.009
559.60	0.009
559.80	0.009
559.99	0.009
560.19	0.009
560.39	0.009
560.58	0.009
560.78	0.009
560.97	0.009
561.17	0.009
561.37	0.009
561.56	0.009
561.76	0.009
561.96	0.009
562.15	0.010
562.35	0.010
562.55	0.010
562.74	0.010
562.94	0.010
563.14	0.010
563.33	0.010
563.53	0.010
563.73	0.010
563.92	0.010
564.12	0.010
564.31	0.010
564.51	0.010
564.71	0.010
564.90	0.010
565.10	0.010
565.30	0.010
565.49	0.010
565.69	0.010
565.89	0.010
566.08	0.009
566.28	0.009
566.47	0.009
566.67	0.009
566.87	0.009
567.06	0.009
567.26	0.009
567.46	0.009
567.65	0.008
567.85	0.008
568.04	0.008
568.24	0.008
568.44	0.008
568.63	0.008
568.83	0.008
569.02	0.008
569.22	0.008
569.42	0.008
569.61	0.008
569.81	0.008
570.00	0.008
570.20	0.008
570.40	0.008
570.59	0.008
570.79	0.008
570.98	0.008
571.18	0.008
571.38	0.008
571.57	0.008
571.77	0.008
571.96	0.008
572.16	0.008
572.35	0.008
572.55	0.008
572.75	0.009
572.94	0.009
573.14	0.009
573.33	0.009
573.53	0.009
573.73	0.009
573.92	0.009
574.12	0.009
574.31	0.009
574.51	0.009
574.70	0.008
574.90	0.007
575.09	0.006
575.29	0.005
575.49	0.005
575.68	0.004
575.88	0.003
576.07	0.002
576.27	0.001
576.46	0.000
576.66	-0.000
576.86	-0.000
577.05	-0.000
577.25	-0.000
577.44	-0.000
577.64	-0.000
577.83	-0.000
578.03	-0.000
578.22	-0.000
578.42	-0.000
578.61	-0.000
578.81	-0.000
579.00	-0.000
579.20	-0.000
579.40	-0.000
579.59	-0.000
579.79	-0.000
579.98	-0.000
580.18	-0.000
580.37	-0.000
580.57	-0.000
580.76	-0.000
580.96	-0.000
581.15	-0.000
581.35	-0.000
581.54	-0.000
581.74	-0.000
581.93	-0.000
582.13	-0.000
582.32	-0.000
582.52	-0.000
582.71	-0.000
582.91	-0.000
583.10	-0.000
583.30	-0.000
583.49	-0.000
583.69	-0.000
583.88	-0.000
584.08	-0.000
584.27	-0.000
584.47	-0.000
584.66	-0.000
584.86	-0.000
585.05	-0.000
585.25	-0.000
585.44	-0.000
585.64	-0.000
585.83	-0.000
586.03	-0.000
586.22	0.000
586.42	0.001
586.61	0.002
586.81	0.003
587.00	0.005
587.20	0.006
587.39	0.007
587.59	0.008
587.78	0.009
587.98	0.010
588.17	0.011
588.37	0.011
588.56	0.011
588.76	0.011
588.95	0.011
589.15	0.011
589.34	0.010
589.54	0.010
589.73	0.010
589.92	0.010
590.12	0.009
590.31	0.009
590.51	0.009
590.70	0.009
590.90	0.008
591.09	0.008
591.29	0.008
591.48	0.008
591.68	0.008
591.87	0.009
592.06	0.009
592.26	0.009
592.45	0.009
592.65	0.009
592.84	0.009
593.04	0.009
593.23	0.009
593.43	0.010
593.62	0.010
593.81	0.010
594.01	0.010
594.20	0.010
594.40	0.011
594.59	0.011
594.79	0.011
594.98	0.011
595.17	0.011
595.37	0.011
595.56	0.011
595.76	0.010
595.95	0.010
596.14	0.009
596.34	0.009
596.53	0.009
596.73	0.008
596.92	0.008
597.12	0.008
597.31	0.007
597.50	0.007
597.70	0.008
597.89	0.008
598.09	0.008
598.28	0.008
598.47	0.008
598.67	0.008
598.86	0.008
599.06	0.009
599.25	0.009
599.44	0.009
599.64	0.009
599.83	0.010
600.03	0.010
600.22	0.010
600.41	0.010
600.61	0.010
600.80	0.011
601.00	0.011
601.19	0.011
601.38	0.011
601.58	0.011
601.77	0.011
601.96	0.011
602.16	0.011
602.35	0.011
602.55	0.010
602.74	0.010
602.93	0.010
603.13	0.010
603.32	0.009
603.51	0.009
603.71	0.009
603.90	0.008
604.09	0.008
604.29	0.008
604.48	0.008
604.68	0.008
604.87	0.008
605.06	0.008
605.26	0.008
605.45	0.008
605.64	0.008
605.84	0.009
606.03	0.009
606.22	0.009
606.42	0.009
606.61	0.010
606.80	0.010
607.00	0.010
607.19	0.010
607.38	0.010
607.58	0.010
607.77	0.010
607.96	0.011
608.16	0.011
608.35	0.011
608.54	0.011
608.74	0.011
608.93	0.011
609.12	0.011
609.32	0.011
609.51	0.011
609.70	0.011
609.90	0.011
610.09	0.011
610.28	0.011
610.48	0.011
610.67	0.010
610.86	0.010
611.06	0.010
611.25	0.010
611.44	0.010
611.64	0.009
611.83	0.009
612.02	0.009
612.21	0.009
612.41	0.009
612.60	0.009
612.79	0.009
612.99	0.009
613.18	0.009
613.37	0.009
613.57	0.009
613.76	0.009
613.95	0.010
614.14	0.010
614.34	0.010
614.53	0.010
614.72	0.010
614.92	0.010
615.11	0.010
615.30	0.010
615.49	0.011
615.69	0.011
615.88	0.011
616.07	0.011
616.26	0.011
616.46	0.011
616.65	0.011
616.84	0.011
617.04	0.012
617.23	0.012
617.42	0.012
617.61	0.012
617.81	0.012
618.00	0.012
618.19	0.012
618.38	0.011
618.58	0.011
618.77	0.011
618.96	0.011
619.15	0.011
619.35	0.011
619.54	0.011
619.73	0.011
619.92	0.011
620.12	0.011
620.31	0.011
620.50	0.011
620.69	0.011
620.89	0.011
621.08	0.011
621.27	0.011
621.46	0.011
621.66	0.011
621.85	0.011
622.04	0.011
622.23	0.011
622.43	0.011
622.62	0.010
622.81	0.010
623.00	0.010
623.19	0.011
623.39	0.011
623.58	0.011
623.77	0.011
623.96	0.011
624.16	0.011
624.35	0.011
624.54	0.011
624.73	0.011
624.92	0.011
625.12	0.011
625.31	0.011
625.50	0.011
625.69	0.011
625.88	0.011
626.08	0.011
626.27	0.011
626.46	0.011
626.65	0.012
626.84	0.012
627.04	0.012
627.23	0.012
627.42	0.012
627.61	0.012
627.80	0.012
628.00	0.012
628.19	0.012
628.38	0.012
628.57	0.012
628.76	0.012
628.96	0.012
629.15	0.012
629.34	0.012
629.53	0.012
629.72	0.012
629.91	0.012
630.11	0.012
630.30	0.012
630.49	0.012
630.68	0.013
630.87	0.013
631.06	0.013
631.26	0.013
631.45	0.013
631.64	0.013
631.83	0.013
632.02	0.013
632.21	0.013
632.41	0.013
632.60	0.013
632.79	0.013
632.98	0.013
633.17	0.012
633.36	0.012
633.55	0.012
633.75	0.012
633.94	0.012
634.13	0.012
634.32	0.012
634.51	0.012
634.70	0.012
634.89	0.012
635.09	0.012
635.28	0.012
635.47	0.012
635.66	0.013
635.85	0.013
636.04	0.013
636.23	0.013
636.43	0.013
636.62	0.013
636.81	0.013
637.00	0.013
637.19	0.013
637.38	0.013
637.57	0.013
637.76	0.013
637.95	0.013
638.15	0.013
638.34	0.013
638.53	0.013
638.72	0.013
638.91	0.013
639.10	0.013
639.29	0.013
639.48	0.013
639.67	0.013
639.87	0.013
640.06	0.013
640.25	0.013
640.44	0.013
640.63	0.013
640.82	0.012
641.01	0.013
641.20	0.013
641.39	0.013
641.58	0.013
641.78	0.013
641.97	0.013
642.16	0.013
642.35	0.013
642.54	0.013
642.73	0.013
642.92	0.013
643.11	0.013
643.30	0.013
643.49	0.013
643.68	0.013
643.87	0.013
644.06	0.013
644.25	0.013
644.45	0.013
644.64	0.013
644.83	0.013
645.02	0.013
645.21	0.013
645.40	0.013
645.59	0.013
645.78	0.013
645.97	0.013
646.16	0.013
646.35	0.012
646.54	0.012
646.73	0.012
646.92	0.012
647.11	0.012
647.30	0.012
647.49	0.011
647.68	0.011
647.88	0.011
648.07	0.011
648.26	0.011
648.45	0.012
648.64	0.012
648.83	0.011
649.02	0.011
649.21	0.012
649.40	0.012
649.59	0.012
649.78	0.012
649.97	0.012
650.16	0.012
650.35	0.013
650.54	0.013
650.73	0.013
650.92	0.013
651.11	0.013
651.30	0.013
651.49	0.013
651.68	0.013
651.87	0.013
652.06	0.013
652.25	0.013
652.44	0.013
652.63	0.011
652.82	0.010
653.01	0.008
653.20	0.007
653.39	0.007
653.58	0.006
653.77	0.006
653.96	0.006
654.15	0.006
654.34	0.005
654.53	0.006
654.72	0.007
654.91	0.007
655.10	0.008
655.29	0.009
655.48	0.009
655.67	0.009
655.86	0.009
656.05	0.010
656.24	0.010
656.43	0.010
656.62	0.010
656.81	0.010
657.00	0.011
657.19	0.013
657.38	0.013
657.57	0.014
657.76	0.015
657.95	0.015
658.14	0.016
658.33	0.017
658.51	0.017
658.70	0.018
658.89	0.018
659.08	0.017
659.27	0.016
659.46	0.015
659.65	0.014
659.84	0.014
660.03	0.014
660.22	0.014
660.41	0.014
660.60	0.014
660.79	0.013
660.98	0.014
661.17	0.013
661.36	0.013
661.55	0.013
661.74	0.013
661.92	0.013
662.11	0.013
662.30	0.013
662.49	0.013
662.68	0.012
662.87	0.012
663.06	0.012
663.25	0.012
663.44	0.012
663.63	0.013
663.82	0.013
664.01	0.013
664.20	0.013
664.38	0.013
664.57	0.013
664.76	0.013
664.95	0.013
665.14	0.013
665.33	0.013
665.52	0.013
665.71	0.013
665.90	0.013
666.09	0.013
666.28	0.013
666.46	0.013
666.65	0.013
666.84	0.013
667.03	0.013
667.22	0.013
667.41	0.013
667.60	0.013
667.79	0.013
667.98	0.013
668.16	0.013
668.35	0.013
668.54	0.013
668.73	0.012
668.92	0.012
669.11	0.012
669.30	0.012
669.49	0.012
669.67	0.012
669.86	0.012
670.05	0.012
670.24	0.012
670.43	0.012
670.62	0.012
670.81	0.012
671.00	0.012
671.18	0.012
671.37	0.012
671.56	0.012
671.75	0.012
671.94	0.012
672.13	0.012
672.32	0.012
672.50	0.012
672.69	0.012
672.88	0.012
673.07	0.012
673.26	0.012
673.45	0.012
673.63	0.013
673.82	0.013
674.01	0.013
674.20	0.013
674.39	0.013
674.58	0.013
674.76	0.013
674.95	0.013
675.14	0.013
675.33	0.013
675.52	0.013
675.71	0.013
675.89	0.013
676.08	0.012
676.27	0.012
676.46	0.012
676.65	0.012
676.84	0.012
677.02	0.012
677.21	0.013
677.40	0.013
677.59	0.013
677.78	0.013
677.96	0.013
678.15	0.013
678.34	0.013
678.53	0.013
678.72	0.013
678.90	0.012
679.09	0.013
679.28	0.012
679.47	0.012
679.66	0.012
679.84	0.012
680.03	0.012
680.22	0.012
680.41	0.012
680.60	0.012
680.78	0.012
680.97	0.013
681.16	0.013
681.35	0.013
681.53	0.013
681.72	0.012
681.91	0.012
682.10	0.012
682.29	0.012
682.47	0.012
682.66	0.012
682.85	0.012
683.04	0.012
683.22	0.012
683.41	0.012
683.60	0.012
683.79	0.012
683.97	0.012
684.16	0.012
684.35	0.012
684.54	0.012
684.72	0.012
684.91	0.012
685.10	0.012
685.29	0.012
685.47	0.012
685.66	0.012
685.85	0.012
686.04	0.012
686.22	0.012
686.41	0.012
686.60	0.012
686.79	0.012
686.97	0.013
687.16	0.013
687.35	0.013
687.54	0.012
687.72	0.013
687.91	0.012
688.10	0.012
688.29	0.012
688.47	0.012
688.66	0.012
688.85	0.012
689.03	0.012
689.22	0.012
689.41	0.012
689.60	0.012
689.78	0.012
689.97	0.012
690.16	0.012
690.34	0.012
690.53	0.012
690.72	0.012
690.91	0.012
691.09	0.012
691.28	0.012
691.47	0.012
691.65	0.012
691.84	0.012
692.03	0.012
692.21	0.013
692.40	0.013
692.59	0.013
692.77	0.013
692.96	0.013
693.15	0.013
693.34	0.013
693.52	0.013
693.71	0.013
693.90	0.013
694.08	0.013
694.27	0.013
694.46	0.013
694.64	0.013
694.83	0.013
695.02	0.013
695.20	0.012
695.39	0.012
695.58	0.012
695.76	0.012
695.95	0.012
696.14	0.012
696.32	0.012
696.51	0.013
696.70	0.013
696.88	0.012
697.07	0.012
697.26	0.012
697.44	0.012
697.63	0.013
697.81	0.013
698.00	0.013
698.19	0.013
698.37	0.013
698.56	0.013
698.75	0.013
698.93	0.014
699.12	0.014
699.31	0.014
699.49	0.014
699.68	0.014
699.87	0.013
700.05	0.013
700.24	0.013
700.42	0.013
700.61	0.013
700.80	0.013
700.98	0.013
701.17	0.013
701.36	0.013
701.54	0.013
701.73	0.013
701.91	0.013
702.10	0.013
702.29	0.013
702.47	0.013
702.66	0.013
702.84	0.013
703.03	0.013
703.22	0.014
703.40	0.014
703.59	0.013
703.77	0.013
703.96	0.013
704.15	0.013
704.33	0.013
704.52	0.013
704.70	0.013
704.89	0.013
705.08	0.013
705.26	0.013
705.45	0.012
705.63	0.012
705.82	0.012
706.00	0.012
706.19	0.012
706.38	0.012
706.56	0.012
706.75	0.012
706.93	0.012
707.12	0.012
707.30	0.012
707.49	0.012
707.68	0.012
707.86	0.012
708.05	0.012
708.23	0.012
708.42	0.012
708.60	0.012
708.79	0.013
708.98	0.013
709.16	0.013
709.35	0.013
709.53	0.013
709.72	0.013
709.90	0.013
710.09	0.013
710.27	0.013
710.46	0.013
710.64	0.013
710.83	0.013
711.02	0.013
711.20	0.013
711.39	0.013
711.57	0.013
711.76	0.013
711.94	0.013
712.13	0.013
712.31	0.013
712.50	0.013
712.68	0.012
712.87	0.013
713.05	0.013
713.24	0.013
713.42	0.012
713.61	0.013
713.79	0.013
713.98	0.013
714.16	0.013
714.35	0.013
714.54	0.013
714.72	0.013
714.91	0.013
715.09	0.013
715.28	0.013
715.46	0.013
715.65	0.013
715.83	0.013
716.02	0.012
716.20	0.012
716.39	0.012
716.57	0.012
716.76	0.012
716.94	0.012
717.12	0.012
717.31	0.012
717.49	0.012
717.68	0.012
717.86	0.012
718.05	0.012
718.23	0.012
718.42	0.012
718.60	0.012
718.79	0.012
718.97	0.012
719.16	0.012
719.34	0.012
719.53	0.012
719.71	0.011
719.90	0.012
720.08	0.012
720.27	0.012
720.45	0.012
720.63	0.012
720.82	0.012
721.00	0.012
721.19	0.012
721.37	0.012
721.56	0.012
721.74	0.012
721.93	0.012
722.11	0.013
722.30	0.012
722.48	0.012
722.66	0.013
722.85	0.013
723.03	0.013
723.22	0.013
723.40	0.013
723.59	0.013
723.77	0.013
723.95	0.013
724.14	0.013
724.32	0.013
724.51	0.013
724.69	0.013
724.88	0.012
725.06	0.012
725.24	0.012
725.43	0.012
725.61	0.012
725.80	0.012
725.98	0.012
726.16	0.012
726.35	0.012
726.53	0.012
726.72	0.012
726.90	0.012
727.09	0.012
727.27	0.012
727.45	0.012
727.64	0.012
727.82	0.012
728.01	0.012
728.19	0.012
728.37	0.012
728.56	0.012
728.74	0.011
728.92	0.011
729.11	0.011
729.29	0.012
729.48	0.011
729.66	0.011
729.84	0.011
730.03	0.011
730.21	0.010
730.40	0.011
730.58	0.011
730.76	0.011
730.95	0.011
731.13	0.011
731.31	0.010
731.50	0.010
731.68	0.011
731.86	0.011
732.05	0.011
732.23	0.011
732.42	0.011
732.60	0.011
732.78	0.011
732.97	0.011
733.15	0.011
733.33	0.011
733.52	0.011
733.70	0.010
733.88	0.010
734.07	0.010
734.25	0.010
734.43	0.010
734.62	0.009
734.80	0.009
734.98	0.008
735.17	0.008
735.35	0.008
735.53	0.008
735.72	0.008
735.90	0.008
736.08	0.008
736.27	0.008
736.45	0.008
736.63	0.008
736.82	0.008
737.00	0.009
737.18	0.009
737.37	0.009
737.55	0.009
737.73	0.009
737.92	0.009
738.10	0.009
738.28	0.009
738.46	0.009
738.65	0.008
738.83	0.009
739.01	0.008
739.20	0.007
739.38	0.008
739.56	0.008
739.75	0.008
739.93	0.009
740.11	0.009
740.29	0.009
740.48	0.009
740.66	0.010
740.84	0.009
741.03	0.010
741.21	0.010
741.39	0.010
741.57	0.010
741.76	0.010
741.94	0.009
742.12	0.009
742.31	0.009
742.49	0.009
742.67	0.009
742.85	0.010
743.04	0.009
743.22	0.008
743.40	0.008
743.58	0.008
743.77	0.008
743.95	0.008
744.13	0.008
744.31	0.008
744.50	0.008
744.68	0.008
744.86	0.008
745.04	0.009
745.23	0.009
745.41	0.009
745.59	0.009
745.77	0.009
745.96	0.009
746.14	0.009
746.32	0.008
746.50	0.009
746.69	0.008
746.87	0.008
747.05	0.008
747.23	0.008
747.42	0.009
747.60	0.009
747.78	0.009
747.96	0.009
748.14	0.009
748.33	0.010
748.51	0.010
748.69	0.010
748.87	0.011
749.06	0.011
749.24	0.011
749.42	0.011
749.60	0.011
749.78	0.010
749.97	0.010
750.15	0.010
750.33	0.010
750.51	0.010
750.69	0.010
750.88	0.009
751.06	0.009
751.24	0.009
751.42	0.010
751.60	0.009
751.79	0.010
751.97	0.011
752.15	0.010
752.33	0.010
752.51	0.009
752.69	0.009
752.88	0.010
753.06	0.011
753.24	0.010
753.42	0.010
753.60	0.010
753.78	0.010
753.97	0.010
754.15	0.010
754.33	0.010
754.51	0.010
754.69	0.009
754.87	0.009
755.06	0.008
755.24	0.008
755.42	0.008
755.60	0.007
755.78	0.008
755.96	0.008
756.15	0.008
756.33	0.008
756.51	0.008
756.69	0.008
756.87	0.008
757.05	0.008
757.23	0.008
757.42	0.008
757.60	0.009
757.78	0.009
757.96	0.008
758.14	0.008
758.32	0.009
758.50	0.009
758.69	0.010
758.87	0.010
759.05	0.010
759.23	0.010
759.41	0.011
759.59	0.011
759.77	0.011
759.95	0.011
760.13	0.011
760.32	0.011
760.50	0.011
760.68	0.011
760.86	0.012
761.04	0.012
761.22	0.012
761.40	0.012
761.58	0.012
761.76	0.012
761.95	0.011
762.13	0.011
762.31	0.012
762.49	0.011
762.67	0.011
762.85	0.011
763.03	0.010
763.21	0.011
763.39	0.010
763.57	0.011
763.75	0.011
763.94	0.011
764.12	0.010
764.30	0.010
764.48	0.010
764.66	0.010
764.84	0.009
765.02	0.010
765.20	0.009
765.38	0.010
765.56	0.009
765.74	0.009
765.92	0.009
766.10	0.009
766.28	0.009
766.46	0.010
766.65	0.010
766.83	0.010
767.01	0.010
767.19	0.010
767.37	0.010
767.55	0.011
767.73	0.011
767.91	0.010
768.09	0.011
768.27	0.010
768.45	0.010
768.63	0.010
768.81	0.011
768.99	0.010
769.17	0.010
769.35	0.010
769.53	0.010
769.71	0.011
769.89	0.011
770.07	0.011
770.25	0.012
770.43	0.012
770.61	0.012
770.79	0.013
770.97	0.013
771.15	0.013
771.33	0.013
771.51	0.013
771.69	0.013
771.87	0.013
772.05	0.013
772.24	0.012
772.42	0.012
772.60	0.012
772.78	0.013
772.96	0.013
773.14	0.013
773.32	0.013
773.49	0.012
773.67	0.012
773.85	0.012
774.03	0.012
774.21	0.012
774.39	0.012
774.57	0.012
774.75	0.012
774.93	0.012
775.11	0.012
775.29	0.012
775.47	0.012
775.65	0.012
775.83	0.012
776.01	0.012
776.19	0.012
776.37	0.012
776.55	0.012
776.73	0.012
776.91	0.012
777.09	0.011
777.27	0.012
777.45	0.012
777.63	0.012
777.81	0.013
777.99	0.013
778.17	0.012
778.35	0.012
778.53	0.012
778.71	0.012
778.89	0.012
779.07	0.012
779.24	0.012
779.42	0.012
779.60	0.012
779.78	0.012
779.96	0.012
780.14	0.012
780.32	0.012
780.50	0.012
780.68	0.012
780.86	0.012
781.04	0.011
781.22	0.012
781.40	0.012
781.58	0.012
781.75	0.012
781.93	0.012
782.11	0.012
782.29	0.013
782.47	0.013
782.65	0.014
782.83	0.014
783.01	0.014
783.19	0.015
783.37	0.014
783.55	0.014
783.72	0.014
783.90	0.014
784.08	0.014
784.26	0.014
784.44	0.013
784.62	0.013
784.80	0.014
784.98	0.014
785.16	0.014
785.33	0.014
785.51	0.014
785.69	0.014
785.87	0.014
786.05	0.013
786.23	0.014
786.41	0.013
786.59	0.013
786.77	0.013
786.94	0.012
787.12	0.012
787.30	0.012
787.48	0.012
787.66	0.012
787.84	0.012
788.02	0.012
788.19	0.012
788.37	0.013
788.55	0.013
788.73	0.013
788.91	0.013
789.09	0.012
789.27	0.013
789.44	0.013
789.62	0.013
789.80	0.013
789.98	0.012
790.16	0.012
790.34	0.012
790.51	0.012
790.69	0.012
790.87	0.013
791.05	0.012
791.23	0.013
791.41	0.013
791.58	0.013
791.76	0.013
791.94	0.013
792.12	0.013
792.30	0.013
792.48	0.013
792.65	0.013
792.83	0.012
793.01	0.013
793.19	0.012
793.37	0.012
793.54	0.012
793.72	0.013
793.90	0.013
794.08	0.013
794.26	0.013
794.43	0.014
794.61	0.013
794.79	0.014
794.97	0.014
795.15	0.014
795.32	0.014
795.50	0.014
795.68	0.015
795.86	0.014
796.04	0.014
796.21	0.014
796.39	0.014
796.57	0.014
796.75	0.014
796.92	0.014
797.10	0.015
797.28	0.014
797.46	0.014
797.64	0.013
797.81	0.013
797.99	0.013
798.17	0.013
798.35	0.014
798.52	0.014
798.70	0.013
798.88	0.013
799.06	0.013
799.23	0.012
799.41	0.013
799.59	0.013
799.77	0.013
799.94	0.013
800.12	0.014
800.30	0.014
800.48	0.014
800.65	0.014
800.83	0.014
801.01	0.014
801.19	0.014
801.36	0.014
801.54	0.014
801.72	0.014
801.90	0.014
802.07	0.013
802.25	0.013
802.43	0.013
802.60	0.013
802.78	0.014
802.96	0.014
803.14	0.013
803.31	0.013
803.49	0.013
803.67	0.013
803.84	0.013
804.02	0.013
804.20	0.014
804.38	0.013
804.55	0.013
804.73	0.013
804.91	0.013
805.08	0.013
805.26	0.014
805.44	0.014
805.61	0.014
805.79	0.014
805.97	0.014
806.15	0.014
806.32	0.014
806.50	0.014
806.68	0.013
806.85	0.013
807.03	0.013
807.21	0.013
807.38	0.014
807.56	0.014
807.74	0.014
807.91	0.014
808.09	0.014
808.27	0.014
808.44	0.014
808.62	0.013
808.80	0.014
808.97	0.014
809.15	0.014
809.33	0.014
809.50	0.013
809.68	0.013
809.86	0.013
810.03	0.013
810.21	0.013
810.39	0.013
810.56	0.014
810.74	0.014
810.91	0.013
811.09	0.013
811.27	0.012
811.44	0.013
811.62	0.012
811.80	0.012
811.97	0.012
812.15	0.012
812.33	0.012
812.50	0.013
812.68	0.013
812.85	0.013
813.03	0.013
813.21	0.014
813.38	0.013
813.56	0.014
813.74	0.014
813.91	0.014
814.09	0.013
814.26	0.014
814.44	0.014
814.62	0.014
814.79	0.013
814.97	0.013
815.14	0.013
815.32	0.013
815.50	0.013
815.67	0.013
815.85	0.013
816.02	0.013
816.20	0.013
816.38	0.013
816.55	0.014
816.73	0.014
816.90	0.014
817.08	0.014
817.26	0.014
817.43	0.014
817.61	0.014
817.78	0.014
817.96	0.014
818.13	0.014
818.31	0.013
818.49	0.013
818.66	0.013
818.84	0.013
819.01	0.012
819.19	0.013
819.36	0.013
819.54	0.013
819.71	0.013
819.89	0.013
820.07	0.014
820.24	0.013
820.42	0.014
820.59	0.014
820.77	0.014
820.94	0.014
821.12	0.014
821.29	0.013
821.47	0.014
821.64	0.014
821.82	0.014
822.00	0.013
822.17	0.014
822.35	0.014
822.52	0.014
822.70	0.014
822.87	0.013
823.05	0.013
823.22	0.013
823.40	0.012
823.57	0.012
823.75	0.012
823.92	0.012
824.10	0.012
824.27	0.013
824.45	0.012
824.62	0.013
824.80	0.012
824.97	0.012
825.15	0.013
825.32	0.013
825.50	0.012
825.67	0.012
825.85	0.012
826.02	0.013
826.20	0.013
826.37	0.013
826.55	0.013
826.72	0.014
826.90	0.014
827.07	0.015
827.25	0.015
827.42	0.015
827.60	0.015
827.77	0.014
827.95	0.015
828.12	0.015
828.30	0.014
828.47	0.014
828.65	0.014
828.82	0.014
829.00	0.014
829.17	0.014
829.34	0.015
829.52	0.015
829.69	0.015
829.87	0.015
830.04	0.014
830.22	0.014
830.39	0.015
830.57	0.014
830.74	0.014
830.92	0.014
831.09	0.014
831.26	0.014
831.44	0.015
831.61	0.016
831.79	0.015
831.96	0.016
832.14	0.016
832.31	0.015
832.49	0.015
832.66	0.015
832.83	0.015
833.01	0.015
833.18	0.016
833.36	0.014
833.53	0.013
833.70	0.013
833.88	0.013
834.05	0.011
834.23	0.011
834.40	0.011
834.58	0.011
834.75	0.009
834.92	0.009
835.10	0.008
835.27	0.008
835.45	0.006
835.62	0.006
835.79	0.006
835.97	0.007
836.14	0.007
836.32	0.007
836.49	0.006
836.66	0.005
836.84	0.005
837.01	0.004
837.18	0.006
837.36	0.006
837.53	0.008
837.71	0.007
837.88	0.008
838.05	0.006
838.23	0.008
838.40	0.009
838.58	0.009
838.75	0.009
838.92	0.009
839.10	0.009
839.27	0.010
839.44	0.010
839.62	0.010
839.79	0.010
839.96	0.014
840.14	0.012
840.31	0.014
840.48	0.017
840.66	0.020
840.83	0.019
841.01	0.017
841.18	0.017
841.35	0.016
841.53	0.015
841.70	0.017
841.87	0.014
842.05	0.014
842.22	0.013
842.39	0.011
842.57	0.008
842.74	0.009
842.91	0.011
843.09	0.010
843.26	0.012
843.43	0.013
843.60	0.012
843.78	0.014
843.95	0.015
844.12	0.015
844.30	0.016
844.47	0.016
844.64	0.019
844.82	0.017
844.99	0.017
845.16	0.015
845.34	0.014
845.51	0.015
845.68	0.015
845.85	0.013
846.03	0.013
846.20	0.013
846.37	0.014
846.55	0.013
846.72	0.013
846.89	0.014
847.06	0.014
847.24	0.015
847.41	0.012
847.58	0.011
847.76	0.013
847.93	0.012
848.10	0.011
848.27	0.009
848.45	0.009
848.62	0.009
848.79	0.008
848.97	0.008
849.14	0.008
849.31	0.010
849.48	0.011
849.66	0.011
849.83	0.011
850.00	0.011
850.17	0.009
850.35	0.006
850.52	0.006
850.69	0.008
850.86	0.007
851.04	0.008
851.21	0.007
851.38	0.005
851.55	0.004
851.72	0.004
851.90	0.006
852.07	0.007
852.24	0.010
852.41	0.008
852.59	0.006
852.76	0.008
852.93	0.008
853.10	0.011
853.28	0.010
853.45	0.010
853.62	0.009
853.79	0.008
853.96	0.007
854.14	0.008
854.31	0.010
854.48	0.012
854.65	0.014
854.82	0.015
855.00	0.015
855.17	0.018
855.34	0.021
855.51	0.021
855.68	0.022
855.86	0.023
856.03	0.020
856.20	0.018
856.37	0.015
856.54	0.011
856.72	0.010
856.89	0.008
857.06	0.004
857.23	0.003
857.40	0.001
857.57	0.001
857.75	0.003
857.92	0.006
858.09	0.009
858.26	0.013
858.43	0.013
858.60	0.014
858.78	0.015
858.95	0.019
859.12	0.021
859.29	0.025
859.46	0.024
859.63	0.026
859.81	0.027
859.98	0.028
860.15	0.025
860.32	0.026
860.49	0.022
860.66	0.019
860.83	0.018
861.01	0.013
861.18	0.012
861.35	0.013
861.52	0.010
861.69	0.005
861.86	0.005
862.03	0.005
862.21	0.007
862.38	0.011
862.55	0.014
862.72	0.013
862.89	0.017
863.06	0.016
863.23	0.016
863.40	0.017
863.58	0.017
863.75	0.016
863.92	0.015
864.09	0.013
864.26	0.009
864.43	0.006
864.60	0.005
864.77	0.006
864.94	0.008
865.11	0.006
865.29	0.006
865.46	0.009
865.63	0.008
865.80	0.009
865.97	0.012
866.14	0.019
866.31	0.020
866.48	0.020
866.65	0.020
866.82	0.017
866.99	0.016
867.16	0.013
867.34	0.013
867.51	0.017
867.68	0.015
867.85	0.010
868.02	0.004
868.19	0.001
868.36	0.000
868.53	-0.006
868.70	-0.002
868.87	-0.006
869.04	-0.001
869.21	0.002
869.38	-0.002
869.55	0.003
869.72	0.006
869.89	0.013
870.06	0.020
870.24	0.022
870.41	0.025
870.58	0.024
870.75	0.033
870.92	0.034
871.09	0.030
871.26	0.034
871.43	0.034
871.60	0.033
871.77	0.025
871.94	0.024
872.11	0.020
872.28	0.016
872.45	0.014
872.62	0.009
872.79	0.003
872.96	0.003
873.13	-0.002
873.30	-0.006
873.47	-0.006
873.64	-0.005
873.81	-0.008
873.98	-0.000
874.15	0.009
874.32	0.007
874.49	0.013
874.66	0.017
874.83	0.023
875.00	0.020
875.17	0.022
875.34	0.024
875.51	0.024
875.68	0.023
875.85	0.019
876.02	0.013
876.19	0.019
876.36	0.017
876.53	0.018
876.70	0.016
876.87	0.021
877.04	0.020
877.21	0.028
877.38	0.026
877.55	0.030
877.72	0.027
877.89	0.025
878.06	0.020
878.23	0.015
878.39	0.017
878.56	0.017
878.73	0.022
878.90	0.023
879.07	0.015
879.24	0.016
879.41	0.015
879.58	0.021
879.75	0.021
879.92	0.022
880.09	0.024
880.26	0.021
880.43	0.014
880.60	0.011
880.77	0.012
880.94	0.017
881.11	0.018
881.27	0.027
881.44	0.026
881.61	0.030
881.78	0.031
881.95	0.031
882.12	0.028
882.29	0.029
882.46	0.019
882.63	0.016
882.80	0.016
882.97	0.017
883.14	0.003
883.30	-0.005
883.47	-0.004
883.64	-0.011
883.81	-0.010
883.98	-0.011
884.15	-0.008
884.32	0.003
884.49	0.010
884.66	-0.001
884.82	0.004
884.99	0.008
885.16	0.017
885.33	0.014
885.50	0.020
885.67	0.027
885.84	0.032
886.01	0.022
886.17	0.011
886.34	0.019
886.51	0.035
886.68	0.022
886.85	0.030
887.02	0.031
887.19	0.034
887.36	0.029
887.52	0.022
887.69	0.024
887.86	0.037
888.03	0.043
888.20	0.029
888.37	0.020
888.54	0.028
888.70	0.019
888.87	0.010
889.04	0.008
889.21	0.013
889.38	0.020
889.55	0.017
889.71	-0.021
889.88	0.017
890.05	-0.040
890.22	0.075
890.39	0.016
>>>>>End Processed Spectral Data<<<<<
