SpectraSuite Data File
++++++++++++++++++++++++++++++++++++
Date: Mon Jun 15 06:14:56 PDT 2015
User: introlabs
Dark Spectrum Present: Yes
Reference Spectrum Present: Yes
Number of Sampled Component Spectra: 1
Spectrometers: USB4H08886
Integration Time (usec): 44366 (USB4H08886)
Spectra Averaged: 20 (USB4H08886)
Boxcar Smoothing: 5 (USB4H08886)
Correct for Electrical Dark: Yes (USB4H08886)
Strobe/Lamp Enabled: No (USB4H08886)
Correct for Detector Non-linearity: Yes (USB4H08886)
Correct for Stray Light: Yes (USB4H08886)
Number of Pixels in Processed Spectrum: 3648
>>>>>Begin Processed Spectral Data<<<<<
178.14	-0.000
178.36	-0.000
178.57	-0.000
178.79	-2.623
179.01	-0.209
179.22	-1.759
179.44	-0.943
179.65	-0.000
179.87	-0.000
180.08	0.840
180.30	0.073
180.52	-0.312
180.73	-0.188
180.95	-0.049
181.16	0.020
181.38	0.049
181.59	0.048
181.81	0.059
182.03	0.051
182.24	0.045
182.46	0.034
182.67	0.035
182.89	0.022
183.10	0.013
183.32	0.013
183.54	0.014
183.75	-0.004
183.97	-0.007
184.18	-0.010
184.40	-0.009
184.61	-0.006
184.83	-0.006
185.04	-0.002
185.26	0.010
185.48	0.007
185.69	0.008
185.91	0.002
186.12	0.007
186.34	0.016
186.55	0.010
186.77	0.001
186.98	-0.009
187.20	-0.016
187.42	-0.027
187.63	-0.036
187.85	-0.038
188.06	-0.041
188.28	-0.044
188.49	-0.044
188.71	-0.061
188.92	-0.066
189.14	-0.061
189.36	-0.047
189.57	-0.041
189.79	-0.025
190.00	-0.023
190.22	-0.013
190.43	-0.008
190.65	-0.014
190.86	-0.012
191.08	-0.005
191.29	-0.004
191.51	0.001
191.72	-0.006
191.94	-0.001
192.16	-0.011
192.37	-0.012
192.59	-0.014
192.80	-0.022
193.02	-0.018
193.23	-0.018
193.45	-0.018
193.66	-0.011
193.88	-0.014
194.09	-0.002
194.31	-0.001
194.52	0.010
194.74	0.017
194.95	0.009
195.17	0.011
195.38	0.024
195.60	0.037
195.81	0.036
196.03	0.027
196.25	0.031
196.46	0.016
196.68	0.008
196.89	-0.003
197.11	-0.006
197.32	-0.001
197.54	-0.003
197.75	-0.009
197.97	-0.018
198.18	-0.014
198.40	-0.003
198.61	-0.004
198.83	-0.003
199.04	-0.001
199.26	0.011
199.47	0.016
199.69	0.008
199.90	0.012
200.12	0.010
200.33	0.002
200.55	-0.001
200.76	-0.008
200.98	-0.022
201.19	-0.007
201.41	-0.003
201.62	-0.010
201.84	-0.011
202.05	-0.015
202.27	-0.028
202.48	-0.027
202.70	-0.014
202.91	-0.017
203.13	-0.009
203.34	-0.000
203.56	-0.013
203.77	-0.016
203.99	-0.017
204.20	-0.017
204.42	-0.006
204.63	0.012
204.85	0.007
205.06	-0.006
205.28	-0.002
205.49	-0.004
205.71	0.004
205.92	0.007
206.14	0.008
206.35	0.012
206.56	0.003
206.78	0.005
206.99	0.001
207.21	0.007
207.42	0.011
207.64	0.008
207.85	0.008
208.07	-0.002
208.28	-0.010
208.50	-0.017
208.71	-0.020
208.93	-0.013
209.14	-0.021
209.36	-0.024
209.57	-0.023
209.79	-0.024
210.00	-0.022
210.22	-0.022
210.43	-0.017
210.64	-0.005
210.86	-0.002
211.07	0.005
211.29	0.003
211.50	0.003
211.72	0.006
211.93	-0.002
212.15	0.004
212.36	0.009
212.58	0.007
212.79	0.007
213.01	0.000
213.22	-0.004
213.43	-0.004
213.65	-0.005
213.86	-0.004
214.08	-0.013
214.29	-0.012
214.51	-0.016
214.72	-0.021
214.94	-0.018
215.15	-0.020
215.36	-0.020
215.58	-0.015
215.79	-0.017
216.01	-0.024
216.22	-0.017
216.44	-0.014
216.65	-0.003
216.87	0.004
217.08	0.002
217.29	0.006
217.51	0.002
217.72	0.003
217.94	0.007
218.15	0.005
218.37	0.007
218.58	0.004
218.80	0.010
219.01	-0.001
219.22	-0.009
219.44	-0.010
219.65	-0.020
219.87	-0.020
220.08	-0.018
220.30	-0.022
220.51	-0.020
220.72	-0.012
220.94	-0.013
221.15	-0.013
221.37	-0.011
221.58	-0.006
221.79	-0.002
222.01	0.006
222.22	0.009
222.44	0.004
222.65	0.003
222.87	0.002
223.08	-0.005
223.29	-0.012
223.51	-0.022
223.72	-0.019
223.94	-0.029
224.15	-0.033
224.36	-0.039
224.58	-0.036
224.79	-0.031
225.01	-0.033
225.22	-0.038
225.44	-0.035
225.65	-0.030
225.86	-0.023
226.08	-0.026
226.29	-0.022
226.51	-0.018
226.72	-0.016
226.93	-0.019
227.15	-0.025
227.36	-0.019
227.58	-0.014
227.79	-0.015
228.00	-0.017
228.22	-0.022
228.43	-0.023
228.65	-0.023
228.86	-0.028
229.07	-0.030
229.29	-0.031
229.50	-0.030
229.72	-0.036
229.93	-0.040
230.14	-0.038
230.36	-0.037
230.57	-0.033
230.78	-0.034
231.00	-0.037
231.21	-0.037
231.43	-0.033
231.64	-0.030
231.85	-0.030
232.07	-0.030
232.28	-0.030
232.50	-0.029
232.71	-0.027
232.92	-0.030
233.14	-0.029
233.35	-0.030
233.56	-0.029
233.78	-0.029
233.99	-0.031
234.21	-0.031
234.42	-0.027
234.63	-0.027
234.85	-0.029
235.06	-0.031
235.27	-0.031
235.49	-0.032
235.70	-0.030
235.91	-0.031
236.13	-0.034
236.34	-0.033
236.56	-0.034
236.77	-0.035
236.98	-0.036
237.20	-0.037
237.41	-0.036
237.62	-0.036
237.84	-0.035
238.05	-0.035
238.26	-0.035
238.48	-0.035
238.69	-0.036
238.91	-0.036
239.12	-0.036
239.33	-0.035
239.55	-0.035
239.76	-0.036
239.97	-0.034
240.19	-0.035
240.40	-0.034
240.61	-0.034
240.83	-0.032
241.04	-0.031
241.25	-0.030
241.47	-0.031
241.68	-0.030
241.89	-0.029
242.11	-0.029
242.32	-0.030
242.53	-0.029
242.75	-0.029
242.96	-0.028
243.17	-0.028
243.39	-0.027
243.60	-0.026
243.81	-0.026
244.03	-0.026
244.24	-0.026
244.45	-0.025
244.67	-0.025
244.88	-0.024
245.09	-0.023
245.31	-0.024
245.52	-0.024
245.73	-0.024
245.95	-0.024
246.16	-0.023
246.37	-0.023
246.59	-0.023
246.80	-0.023
247.01	-0.023
247.23	-0.023
247.44	-0.023
247.65	-0.022
247.87	-0.022
248.08	-0.023
248.29	-0.022
248.51	-0.022
248.72	-0.022
248.93	-0.022
249.15	-0.022
249.36	-0.022
249.57	-0.022
249.78	-0.021
250.00	-0.021
250.21	-0.021
250.42	-0.020
250.64	-0.020
250.85	-0.019
251.06	-0.019
251.28	-0.019
251.49	-0.018
251.70	-0.018
251.92	-0.018
252.13	-0.018
252.34	-0.018
252.55	-0.018
252.77	-0.017
252.98	-0.018
253.19	-0.018
253.41	-0.018
253.62	-0.018
253.83	-0.018
254.05	-0.018
254.26	-0.018
254.47	-0.018
254.68	-0.017
254.90	-0.017
255.11	-0.017
255.32	-0.017
255.54	-0.017
255.75	-0.017
255.96	-0.017
256.17	-0.017
256.39	-0.017
256.60	-0.017
256.81	-0.017
257.03	-0.017
257.24	-0.017
257.45	-0.017
257.66	-0.017
257.88	-0.016
258.09	-0.016
258.30	-0.016
258.51	-0.016
258.73	-0.016
258.94	-0.016
259.15	-0.015
259.37	-0.015
259.58	-0.015
259.79	-0.015
260.00	-0.015
260.22	-0.015
260.43	-0.016
260.64	-0.016
260.85	-0.016
261.07	-0.016
261.28	-0.016
261.49	-0.016
261.71	-0.016
261.92	-0.016
262.13	-0.016
262.34	-0.016
262.56	-0.016
262.77	-0.016
262.98	-0.016
263.19	-0.016
263.41	-0.016
263.62	-0.016
263.83	-0.016
264.04	-0.016
264.26	-0.016
264.47	-0.016
264.68	-0.016
264.89	-0.016
265.11	-0.016
265.32	-0.016
265.53	-0.016
265.74	-0.016
265.96	-0.016
266.17	-0.016
266.38	-0.016
266.59	-0.016
266.81	-0.016
267.02	-0.017
267.23	-0.017
267.44	-0.017
267.65	-0.017
267.87	-0.017
268.08	-0.017
268.29	-0.017
268.50	-0.017
268.72	-0.018
268.93	-0.017
269.14	-0.017
269.35	-0.017
269.57	-0.018
269.78	-0.018
269.99	-0.018
270.20	-0.018
270.41	-0.018
270.63	-0.018
270.84	-0.018
271.05	-0.018
271.26	-0.018
271.48	-0.019
271.69	-0.019
271.90	-0.019
272.11	-0.019
272.32	-0.019
272.54	-0.019
272.75	-0.019
272.96	-0.019
273.17	-0.019
273.39	-0.019
273.60	-0.020
273.81	-0.020
274.02	-0.020
274.23	-0.021
274.45	-0.021
274.66	-0.021
274.87	-0.020
275.08	-0.020
275.29	-0.021
275.51	-0.021
275.72	-0.021
275.93	-0.020
276.14	-0.020
276.35	-0.020
276.57	-0.020
276.78	-0.020
276.99	-0.020
277.20	-0.020
277.41	-0.020
277.63	-0.020
277.84	-0.020
278.05	-0.020
278.26	-0.020
278.47	-0.020
278.69	-0.020
278.90	-0.020
279.11	-0.020
279.32	-0.020
279.53	-0.019
279.74	-0.019
279.96	-0.019
280.17	-0.019
280.38	-0.019
280.59	-0.019
280.80	-0.019
281.02	-0.019
281.23	-0.019
281.44	-0.019
281.65	-0.018
281.86	-0.018
282.07	-0.018
282.29	-0.018
282.50	-0.018
282.71	-0.018
282.92	-0.018
283.13	-0.018
283.35	-0.018
283.56	-0.018
283.77	-0.017
283.98	-0.017
284.19	-0.017
284.40	-0.017
284.62	-0.017
284.83	-0.017
285.04	-0.016
285.25	-0.016
285.46	-0.016
285.67	-0.016
285.88	-0.015
286.10	-0.015
286.31	-0.015
286.52	-0.015
286.73	-0.014
286.94	-0.014
287.15	-0.014
287.37	-0.014
287.58	-0.014
287.79	-0.013
288.00	-0.013
288.21	-0.013
288.42	-0.013
288.63	-0.012
288.85	-0.012
289.06	-0.012
289.27	-0.011
289.48	-0.011
289.69	-0.011
289.90	-0.010
290.11	-0.010
290.33	-0.010
290.54	-0.009
290.75	-0.009
290.96	-0.009
291.17	-0.009
291.38	-0.009
291.59	-0.009
291.81	-0.009
292.02	-0.009
292.23	-0.008
292.44	-0.008
292.65	-0.008
292.86	-0.008
293.07	-0.008
293.28	-0.008
293.50	-0.007
293.71	-0.008
293.92	-0.008
294.13	-0.007
294.34	-0.007
294.55	-0.007
294.76	-0.007
294.97	-0.007
295.19	-0.007
295.40	-0.007
295.61	-0.007
295.82	-0.007
296.03	-0.006
296.24	-0.006
296.45	-0.006
296.66	-0.006
296.87	-0.006
297.09	-0.006
297.30	-0.006
297.51	-0.006
297.72	-0.006
297.93	-0.006
298.14	-0.006
298.35	-0.006
298.56	-0.007
298.77	-0.006
298.99	-0.006
299.20	-0.006
299.41	-0.006
299.62	-0.006
299.83	-0.006
300.04	-0.006
300.25	-0.006
300.46	-0.006
300.67	-0.006
300.88	-0.005
301.10	-0.005
301.31	-0.006
301.52	-0.006
301.73	-0.006
301.94	-0.006
302.15	-0.006
302.36	-0.006
302.57	-0.006
302.78	-0.006
302.99	-0.006
303.20	-0.006
303.41	-0.006
303.63	-0.006
303.84	-0.006
304.05	-0.006
304.26	-0.006
304.47	-0.006
304.68	-0.006
304.89	-0.006
305.10	-0.006
305.31	-0.006
305.52	-0.006
305.73	-0.006
305.94	-0.006
306.15	-0.006
306.37	-0.006
306.58	-0.006
306.79	-0.006
307.00	-0.006
307.21	-0.006
307.42	-0.006
307.63	-0.006
307.84	-0.006
308.05	-0.006
308.26	-0.006
308.47	-0.006
308.68	-0.006
308.89	-0.006
309.10	-0.006
309.31	-0.005
309.52	-0.005
309.73	-0.005
309.95	-0.006
310.16	-0.005
310.37	-0.005
310.58	-0.006
310.79	-0.006
311.00	-0.006
311.21	-0.006
311.42	-0.006
311.63	-0.006
311.84	-0.006
312.05	-0.006
312.26	-0.006
312.47	-0.006
312.68	-0.006
312.89	-0.006
313.10	-0.006
313.31	-0.006
313.52	-0.005
313.73	-0.006
313.94	-0.005
314.15	-0.005
314.36	-0.005
314.57	-0.005
314.78	-0.005
314.99	-0.005
315.21	-0.005
315.42	-0.005
315.63	-0.006
315.84	-0.006
316.05	-0.006
316.26	-0.006
316.47	-0.006
316.68	-0.006
316.89	-0.006
317.10	-0.006
317.31	-0.006
317.52	-0.006
317.73	-0.006
317.94	-0.006
318.15	-0.006
318.36	-0.006
318.57	-0.006
318.78	-0.006
318.99	-0.005
319.20	-0.005
319.41	-0.005
319.62	-0.005
319.83	-0.005
320.04	-0.005
320.25	-0.005
320.46	-0.005
320.67	-0.005
320.88	-0.005
321.09	-0.005
321.30	-0.005
321.51	-0.005
321.72	-0.006
321.93	-0.006
322.14	-0.005
322.35	-0.005
322.56	-0.005
322.77	-0.005
322.98	-0.005
323.19	-0.005
323.40	-0.005
323.61	-0.005
323.82	-0.005
324.03	-0.005
324.24	-0.005
324.45	-0.005
324.66	-0.005
324.87	-0.005
325.08	-0.005
325.29	-0.005
325.50	-0.005
325.71	-0.005
325.92	-0.005
326.13	-0.005
326.34	-0.005
326.55	-0.005
326.76	-0.005
326.97	-0.005
327.18	-0.005
327.39	-0.005
327.60	-0.005
327.80	-0.005
328.01	-0.005
328.22	-0.005
328.43	-0.005
328.64	-0.005
328.85	-0.005
329.06	-0.005
329.27	-0.005
329.48	-0.004
329.69	-0.004
329.90	-0.004
330.11	-0.004
330.32	-0.004
330.53	-0.004
330.74	-0.004
330.95	-0.004
331.16	-0.005
331.37	-0.005
331.58	-0.005
331.79	-0.005
332.00	-0.005
332.21	-0.005
332.42	-0.005
332.63	-0.005
332.83	-0.005
333.04	-0.005
333.25	-0.004
333.46	-0.004
333.67	-0.005
333.88	-0.005
334.09	-0.005
334.30	-0.005
334.51	-0.004
334.72	-0.004
334.93	-0.004
335.14	-0.004
335.35	-0.004
335.56	-0.004
335.77	-0.004
335.98	-0.004
336.18	-0.004
336.39	-0.004
336.60	-0.004
336.81	-0.004
337.02	-0.004
337.23	-0.004
337.44	-0.004
337.65	-0.004
337.86	-0.004
338.07	-0.004
338.28	-0.004
338.49	-0.004
338.70	-0.004
338.91	-0.004
339.11	-0.004
339.32	-0.004
339.53	-0.004
339.74	-0.004
339.95	-0.004
340.16	-0.004
340.37	-0.004
340.58	-0.004
340.79	-0.004
341.00	-0.004
341.21	-0.004
341.41	-0.004
341.62	-0.004
341.83	-0.004
342.04	-0.004
342.25	-0.004
342.46	-0.004
342.67	-0.004
342.88	-0.004
343.09	-0.004
343.30	-0.004
343.50	-0.004
343.71	-0.004
343.92	-0.004
344.13	-0.004
344.34	-0.004
344.55	-0.004
344.76	-0.004
344.97	-0.004
345.18	-0.004
345.38	-0.004
345.59	-0.004
345.80	-0.004
346.01	-0.004
346.22	-0.004
346.43	-0.004
346.64	-0.004
346.85	-0.004
347.06	-0.004
347.26	-0.004
347.47	-0.004
347.68	-0.004
347.89	-0.004
348.10	-0.004
348.31	-0.004
348.52	-0.004
348.73	-0.004
348.93	-0.004
349.14	-0.004
349.35	-0.004
349.56	-0.004
349.77	-0.004
349.98	-0.004
350.19	-0.004
350.39	-0.004
350.60	-0.004
350.81	-0.003
351.02	-0.003
351.23	-0.003
351.44	-0.003
351.65	-0.003
351.86	-0.003
352.06	-0.003
352.27	-0.003
352.48	-0.003
352.69	-0.003
352.90	-0.003
353.11	-0.003
353.31	-0.003
353.52	-0.004
353.73	-0.004
353.94	-0.003
354.15	-0.003
354.36	-0.003
354.57	-0.003
354.77	-0.003
354.98	-0.003
355.19	-0.003
355.40	-0.003
355.61	-0.003
355.82	-0.003
356.02	-0.003
356.23	-0.003
356.44	-0.003
356.65	-0.003
356.86	-0.003
357.07	-0.003
357.27	-0.003
357.48	-0.003
357.69	-0.003
357.90	-0.003
358.11	-0.003
358.32	-0.003
358.52	-0.003
358.73	-0.003
358.94	-0.003
359.15	-0.003
359.36	-0.003
359.56	-0.003
359.77	-0.003
359.98	-0.003
360.19	-0.003
360.40	-0.003
360.61	-0.003
360.81	-0.003
361.02	-0.003
361.23	-0.003
361.44	-0.003
361.65	-0.003
361.85	-0.003
362.06	-0.003
362.27	-0.003
362.48	-0.003
362.69	-0.003
362.89	-0.003
363.10	-0.003
363.31	-0.003
363.52	-0.003
363.73	-0.003
363.93	-0.003
364.14	-0.003
364.35	-0.003
364.56	-0.003
364.77	-0.003
364.97	-0.003
365.18	-0.003
365.39	-0.003
365.60	-0.003
365.81	-0.003
366.01	-0.003
366.22	-0.003
366.43	-0.003
366.64	-0.003
366.84	-0.003
367.05	-0.003
367.26	-0.003
367.47	-0.003
367.68	-0.003
367.88	-0.003
368.09	-0.003
368.30	-0.003
368.51	-0.003
368.71	-0.003
368.92	-0.003
369.13	-0.003
369.34	-0.003
369.55	-0.003
369.75	-0.003
369.96	-0.003
370.17	-0.003
370.38	-0.003
370.58	-0.003
370.79	-0.003
371.00	-0.003
371.21	-0.002
371.41	-0.003
371.62	-0.002
371.83	-0.002
372.04	-0.002
372.24	-0.002
372.45	-0.002
372.66	-0.002
372.87	-0.002
373.07	-0.002
373.28	-0.002
373.49	-0.003
373.70	-0.003
373.90	-0.003
374.11	-0.003
374.32	-0.003
374.53	-0.003
374.73	-0.003
374.94	-0.003
375.15	-0.003
375.36	-0.003
375.56	-0.002
375.77	-0.003
375.98	-0.002
376.19	-0.002
376.39	-0.002
376.60	-0.002
376.81	-0.002
377.02	-0.002
377.22	-0.002
377.43	-0.002
377.64	-0.002
377.84	-0.002
378.05	-0.002
378.26	-0.002
378.47	-0.002
378.67	-0.002
378.88	-0.002
379.09	-0.002
379.30	-0.002
379.50	-0.002
379.71	-0.002
379.92	-0.002
380.12	-0.002
380.33	-0.002
380.54	-0.002
380.75	-0.002
380.95	-0.002
381.16	-0.002
381.37	-0.002
381.57	-0.002
381.78	-0.002
381.99	-0.002
382.20	-0.002
382.40	-0.002
382.61	-0.002
382.82	-0.002
383.02	-0.002
383.23	-0.002
383.44	-0.002
383.64	-0.002
383.85	-0.002
384.06	-0.002
384.27	-0.002
384.47	-0.002
384.68	-0.002
384.89	-0.002
385.09	-0.002
385.30	-0.002
385.51	-0.002
385.71	-0.002
385.92	-0.002
386.13	-0.002
386.33	-0.002
386.54	-0.002
386.75	-0.002
386.95	-0.002
387.16	-0.002
387.37	-0.002
387.58	-0.002
387.78	-0.002
387.99	-0.002
388.20	-0.002
388.40	-0.002
388.61	-0.002
388.82	-0.002
389.02	-0.002
389.23	-0.002
389.44	-0.002
389.64	-0.002
389.85	-0.002
390.06	-0.002
390.26	-0.002
390.47	-0.002
390.68	-0.002
390.88	-0.002
391.09	-0.002
391.30	-0.002
391.50	-0.002
391.71	-0.002
391.92	-0.002
392.12	-0.002
392.33	-0.002
392.53	-0.002
392.74	-0.002
392.95	-0.002
393.15	-0.002
393.36	-0.002
393.57	-0.002
393.77	-0.002
393.98	-0.002
394.19	-0.002
394.39	-0.002
394.60	-0.002
394.81	-0.002
395.01	-0.002
395.22	-0.002
395.43	-0.002
395.63	-0.002
395.84	-0.002
396.04	-0.002
396.25	-0.002
396.46	-0.002
396.66	-0.002
396.87	-0.002
397.08	-0.002
397.28	-0.002
397.49	-0.002
397.69	-0.002
397.90	-0.002
398.11	-0.002
398.31	-0.002
398.52	-0.002
398.73	-0.002
398.93	-0.002
399.14	-0.002
399.34	-0.002
399.55	-0.002
399.76	-0.002
399.96	-0.002
400.17	-0.002
400.37	-0.002
400.58	-0.002
400.79	-0.002
400.99	-0.002
401.20	-0.002
401.41	-0.002
401.61	-0.002
401.82	-0.002
402.02	-0.002
402.23	-0.002
402.44	-0.002
402.64	-0.002
402.85	-0.002
403.05	-0.002
403.26	-0.002
403.47	-0.002
403.67	-0.002
403.88	-0.002
404.08	-0.002
404.29	-0.002
404.50	-0.002
404.70	-0.002
404.91	-0.002
405.11	-0.002
405.32	-0.002
405.52	-0.002
405.73	-0.002
405.94	-0.002
406.14	-0.002
406.35	-0.002
406.55	-0.002
406.76	-0.002
406.97	-0.002
407.17	-0.002
407.38	-0.002
407.58	-0.002
407.79	-0.002
407.99	-0.002
408.20	-0.002
408.41	-0.002
408.61	-0.002
408.82	-0.002
409.02	-0.002
409.23	-0.002
409.43	-0.002
409.64	-0.002
409.84	-0.002
410.05	-0.002
410.26	-0.002
410.46	-0.002
410.67	-0.002
410.87	-0.002
411.08	-0.002
411.28	-0.002
411.49	-0.002
411.69	-0.002
411.90	-0.002
412.11	-0.002
412.31	-0.002
412.52	-0.002
412.72	-0.002
412.93	-0.002
413.13	-0.002
413.34	-0.002
413.54	-0.002
413.75	-0.002
413.95	-0.002
414.16	-0.002
414.37	-0.002
414.57	-0.002
414.78	-0.002
414.98	-0.002
415.19	-0.002
415.39	-0.002
415.60	-0.002
415.80	-0.002
416.01	-0.002
416.21	-0.002
416.42	-0.002
416.62	-0.002
416.83	-0.002
417.03	-0.002
417.24	-0.002
417.44	-0.002
417.65	-0.002
417.86	-0.002
418.06	-0.002
418.27	-0.002
418.47	-0.002
418.68	-0.002
418.88	-0.002
419.09	-0.002
419.29	-0.002
419.50	-0.002
419.70	-0.002
419.91	-0.002
420.11	-0.002
420.32	-0.002
420.52	-0.002
420.73	-0.002
420.93	-0.002
421.14	-0.002
421.34	-0.002
421.55	-0.002
421.75	-0.002
421.96	-0.002
422.16	-0.002
422.37	-0.002
422.57	-0.002
422.78	-0.002
422.98	-0.002
423.19	-0.002
423.39	-0.002
423.60	-0.002
423.80	-0.002
424.01	-0.002
424.21	-0.002
424.42	-0.002
424.62	-0.002
424.83	-0.002
425.03	-0.002
425.23	-0.002
425.44	-0.002
425.64	-0.002
425.85	-0.002
426.05	-0.002
426.26	-0.002
426.46	-0.002
426.67	-0.002
426.87	-0.002
427.08	-0.002
427.28	-0.002
427.49	-0.002
427.69	-0.002
427.90	-0.002
428.10	-0.002
428.31	-0.002
428.51	-0.002
428.71	-0.002
428.92	-0.002
429.12	-0.002
429.33	-0.002
429.53	-0.002
429.74	-0.002
429.94	-0.002
430.15	-0.002
430.35	-0.002
430.56	-0.002
430.76	-0.002
430.96	-0.002
431.17	-0.002
431.37	-0.002
431.58	-0.002
431.78	-0.002
431.99	-0.002
432.19	-0.002
432.40	-0.002
432.60	-0.002
432.80	-0.002
433.01	-0.002
433.21	-0.002
433.42	-0.002
433.62	-0.002
433.83	-0.002
434.03	-0.002
434.23	-0.002
434.44	-0.002
434.64	-0.002
434.85	-0.002
435.05	-0.002
435.26	-0.002
435.46	-0.002
435.66	-0.002
435.87	-0.002
436.07	-0.002
436.28	-0.002
436.48	-0.002
436.69	-0.002
436.89	-0.002
437.09	-0.002
437.30	-0.002
437.50	-0.002
437.71	-0.002
437.91	-0.002
438.11	-0.002
438.32	-0.002
438.52	-0.002
438.73	-0.002
438.93	-0.002
439.13	-0.002
439.34	-0.002
439.54	-0.002
439.75	-0.002
439.95	-0.002
440.15	-0.002
440.36	-0.002
440.56	-0.002
440.77	-0.002
440.97	-0.002
441.17	-0.002
441.38	-0.001
441.58	-0.002
441.79	-0.002
441.99	-0.002
442.19	-0.002
442.40	-0.002
442.60	-0.002
442.81	-0.002
443.01	-0.002
443.21	-0.002
443.42	-0.002
443.62	-0.002
443.82	-0.002
444.03	-0.002
444.23	-0.002
444.44	-0.002
444.64	-0.002
444.84	-0.002
445.05	-0.002
445.25	-0.002
445.45	-0.002
445.66	-0.002
445.86	-0.002
446.06	-0.002
446.27	-0.002
446.47	-0.002
446.68	-0.002
446.88	-0.002
447.08	-0.002
447.29	-0.002
447.49	-0.002
447.69	-0.002
447.90	-0.001
448.10	-0.001
448.30	-0.001
448.51	-0.001
448.71	-0.001
448.91	-0.001
449.12	-0.002
449.32	-0.002
449.52	-0.001
449.73	-0.001
449.93	-0.002
450.14	-0.002
450.34	-0.001
450.54	-0.001
450.75	-0.001
450.95	-0.001
451.15	-0.001
451.36	-0.001
451.56	-0.001
451.76	-0.001
451.97	-0.001
452.17	-0.001
452.37	-0.001
452.58	-0.001
452.78	-0.001
452.98	-0.001
453.19	-0.001
453.39	-0.001
453.59	-0.001
453.79	-0.001
454.00	-0.001
454.20	-0.002
454.40	-0.002
454.61	-0.002
454.81	-0.002
455.01	-0.002
455.22	-0.002
455.42	-0.002
455.62	-0.002
455.83	-0.002
456.03	-0.002
456.23	-0.002
456.44	-0.002
456.64	-0.002
456.84	-0.002
457.04	-0.002
457.25	-0.002
457.45	-0.002
457.65	-0.002
457.86	-0.002
458.06	-0.002
458.26	-0.001
458.47	-0.001
458.67	-0.002
458.87	-0.002
459.07	-0.002
459.28	-0.002
459.48	-0.002
459.68	-0.002
459.89	-0.002
460.09	-0.002
460.29	-0.002
460.49	-0.002
460.70	-0.002
460.90	-0.002
461.10	-0.001
461.31	-0.002
461.51	-0.002
461.71	-0.002
461.91	-0.002
462.12	-0.001
462.32	-0.001
462.52	-0.001
462.72	-0.001
462.93	-0.001
463.13	-0.001
463.33	-0.001
463.53	-0.001
463.74	-0.002
463.94	-0.001
464.14	-0.002
464.35	-0.002
464.55	-0.002
464.75	-0.002
464.95	-0.002
465.16	-0.002
465.36	-0.002
465.56	-0.002
465.76	-0.002
465.97	-0.002
466.17	-0.002
466.37	-0.002
466.57	-0.002
466.78	-0.001
466.98	-0.001
467.18	-0.001
467.38	-0.001
467.59	-0.001
467.79	-0.001
467.99	-0.001
468.19	-0.001
468.39	-0.002
468.60	-0.001
468.80	-0.002
469.00	-0.002
469.20	-0.002
469.41	-0.002
469.61	-0.002
469.81	-0.002
470.01	-0.002
470.22	-0.002
470.42	-0.002
470.62	-0.002
470.82	-0.002
471.02	-0.002
471.23	-0.002
471.43	-0.001
471.63	-0.001
471.83	-0.001
472.04	-0.001
472.24	-0.001
472.44	-0.001
472.64	-0.001
472.84	-0.001
473.05	-0.001
473.25	-0.001
473.45	-0.001
473.65	-0.002
473.85	-0.002
474.06	-0.002
474.26	-0.002
474.46	-0.002
474.66	-0.002
474.86	-0.002
475.07	-0.002
475.27	-0.002
475.47	-0.002
475.67	-0.002
475.87	-0.002
476.08	-0.002
476.28	-0.002
476.48	-0.002
476.68	-0.002
476.88	-0.002
477.09	-0.002
477.29	-0.002
477.49	-0.002
477.69	-0.002
477.89	-0.001
478.09	-0.001
478.30	-0.001
478.50	-0.001
478.70	-0.001
478.90	-0.001
479.10	-0.001
479.31	-0.001
479.51	-0.002
479.71	-0.002
479.91	-0.002
480.11	-0.002
480.31	-0.002
480.52	-0.002
480.72	-0.002
480.92	-0.002
481.12	-0.002
481.32	-0.002
481.52	-0.002
481.72	-0.002
481.93	-0.002
482.13	-0.002
482.33	-0.002
482.53	-0.001
482.73	-0.002
482.93	-0.002
483.14	-0.002
483.34	-0.002
483.54	-0.002
483.74	-0.002
483.94	-0.002
484.14	-0.002
484.34	-0.002
484.55	-0.002
484.75	-0.002
484.95	-0.002
485.15	-0.001
485.35	-0.001
485.55	-0.001
485.75	-0.001
485.96	-0.001
486.16	-0.001
486.36	-0.001
486.56	-0.001
486.76	-0.001
486.96	-0.001
487.16	-0.001
487.36	-0.001
487.57	-0.001
487.77	-0.001
487.97	-0.001
488.17	-0.001
488.37	-0.001
488.57	-0.001
488.77	-0.001
488.97	-0.001
489.18	-0.001
489.38	-0.001
489.58	-0.001
489.78	-0.001
489.98	-0.001
490.18	-0.001
490.38	-0.001
490.58	-0.001
490.78	-0.001
490.98	-0.001
491.19	-0.001
491.39	-0.001
491.59	-0.001
491.79	-0.001
491.99	-0.001
492.19	-0.001
492.39	-0.001
492.59	-0.001
492.79	-0.001
492.99	-0.001
493.20	-0.001
493.40	-0.001
493.60	-0.001
493.80	-0.001
494.00	-0.001
494.20	-0.001
494.40	-0.001
494.60	-0.001
494.80	-0.001
495.00	-0.001
495.20	-0.001
495.40	-0.001
495.61	-0.001
495.81	-0.001
496.01	-0.001
496.21	-0.001
496.41	-0.001
496.61	-0.001
496.81	-0.001
497.01	-0.001
497.21	-0.001
497.41	-0.001
497.61	-0.001
497.81	-0.001
498.01	-0.001
498.21	-0.001
498.41	-0.001
498.61	-0.001
498.82	-0.001
499.02	-0.001
499.22	-0.001
499.42	-0.001
499.62	-0.001
499.82	-0.001
500.02	-0.001
500.22	-0.001
500.42	-0.001
500.62	-0.001
500.82	-0.001
501.02	-0.001
501.22	-0.001
501.42	-0.001
501.62	-0.001
501.82	-0.001
502.02	-0.001
502.22	-0.001
502.42	-0.001
502.62	-0.001
502.82	-0.001
503.02	-0.001
503.22	-0.001
503.42	-0.001
503.63	-0.001
503.83	-0.001
504.03	-0.001
504.23	-0.001
504.43	-0.001
504.63	-0.001
504.83	-0.001
505.03	-0.001
505.23	-0.001
505.43	-0.001
505.63	-0.001
505.83	-0.001
506.03	-0.001
506.23	-0.001
506.43	-0.001
506.63	-0.001
506.83	-0.001
507.03	-0.001
507.23	-0.001
507.43	-0.001
507.63	-0.001
507.83	-0.001
508.03	-0.001
508.23	-0.001
508.43	-0.001
508.63	-0.001
508.83	-0.001
509.03	-0.001
509.23	-0.001
509.43	-0.001
509.63	-0.001
509.83	-0.001
510.03	-0.001
510.23	-0.001
510.43	-0.001
510.63	-0.001
510.83	-0.001
511.03	-0.001
511.23	-0.001
511.43	-0.001
511.63	-0.001
511.83	-0.001
512.03	-0.001
512.22	-0.001
512.42	-0.001
512.62	-0.001
512.82	-0.001
513.02	-0.001
513.22	-0.001
513.42	-0.001
513.62	-0.001
513.82	-0.001
514.02	-0.001
514.22	-0.001
514.42	-0.001
514.62	-0.001
514.82	-0.001
515.02	-0.001
515.22	-0.001
515.42	-0.001
515.62	-0.001
515.82	-0.001
516.02	-0.001
516.22	-0.001
516.42	-0.001
516.62	-0.001
516.82	-0.001
517.01	-0.001
517.21	-0.001
517.41	-0.001
517.61	-0.001
517.81	-0.001
518.01	-0.001
518.21	-0.001
518.41	-0.001
518.61	-0.001
518.81	-0.001
519.01	-0.001
519.21	-0.001
519.41	-0.001
519.61	-0.001
519.81	-0.001
520.00	-0.001
520.20	-0.001
520.40	-0.001
520.60	-0.001
520.80	-0.001
521.00	-0.001
521.20	-0.001
521.40	-0.001
521.60	-0.001
521.80	-0.001
522.00	-0.001
522.20	-0.001
522.39	-0.001
522.59	-0.001
522.79	-0.001
522.99	-0.001
523.19	-0.001
523.39	-0.001
523.59	-0.001
523.79	-0.001
523.99	-0.001
524.19	-0.001
524.38	-0.001
524.58	-0.001
524.78	-0.001
524.98	-0.001
525.18	-0.001
525.38	-0.001
525.58	-0.001
525.78	-0.001
525.98	-0.001
526.18	-0.001
526.37	-0.001
526.57	-0.001
526.77	-0.001
526.97	-0.001
527.17	-0.001
527.37	-0.001
527.57	-0.001
527.77	-0.001
527.96	-0.001
528.16	-0.001
528.36	-0.001
528.56	-0.001
528.76	-0.001
528.96	-0.001
529.16	-0.001
529.36	-0.001
529.55	-0.001
529.75	-0.001
529.95	-0.001
530.15	-0.001
530.35	-0.001
530.55	-0.001
530.75	-0.001
530.94	-0.001
531.14	-0.001
531.34	-0.001
531.54	-0.001
531.74	-0.001
531.94	-0.001
532.13	-0.001
532.33	-0.001
532.53	-0.001
532.73	-0.001
532.93	-0.001
533.13	-0.001
533.33	-0.001
533.52	-0.001
533.72	-0.001
533.92	-0.001
534.12	-0.001
534.32	-0.001
534.52	-0.001
534.71	-0.001
534.91	-0.001
535.11	-0.001
535.31	-0.001
535.51	-0.001
535.71	-0.001
535.90	-0.001
536.10	-0.001
536.30	-0.001
536.50	-0.001
536.70	-0.001
536.89	-0.001
537.09	-0.001
537.29	-0.001
537.49	-0.001
537.69	-0.001
537.89	-0.001
538.08	-0.001
538.28	-0.001
538.48	-0.001
538.68	-0.001
538.88	-0.001
539.07	-0.001
539.27	-0.001
539.47	-0.001
539.67	-0.001
539.87	-0.001
540.06	-0.001
540.26	-0.001
540.46	-0.001
540.66	-0.000
540.86	-0.001
541.05	-0.001
541.25	-0.001
541.45	-0.000
541.65	-0.001
541.84	-0.001
542.04	-0.001
542.24	-0.001
542.44	-0.001
542.64	-0.001
542.83	-0.001
543.03	-0.001
543.23	-0.001
543.43	-0.001
543.62	-0.001
543.82	-0.001
544.02	-0.001
544.22	-0.001
544.42	-0.001
544.61	-0.001
544.81	-0.001
545.01	-0.001
545.21	-0.001
545.40	-0.001
545.60	-0.001
545.80	-0.001
546.00	-0.001
546.19	-0.001
546.39	-0.001
546.59	-0.001
546.79	-0.000
546.98	-0.000
547.18	-0.000
547.38	-0.000
547.58	-0.000
547.77	-0.000
547.97	-0.000
548.17	-0.000
548.37	-0.000
548.56	-0.000
548.76	-0.000
548.96	-0.001
549.16	-0.001
549.35	-0.001
549.55	-0.001
549.75	-0.001
549.95	-0.001
550.14	-0.001
550.34	-0.001
550.54	-0.001
550.73	-0.001
550.93	-0.001
551.13	-0.001
551.33	-0.001
551.52	-0.001
551.72	-0.001
551.92	-0.001
552.12	-0.001
552.31	-0.001
552.51	-0.001
552.71	-0.001
552.90	-0.001
553.10	-0.001
553.30	-0.001
553.50	-0.001
553.69	-0.001
553.89	-0.001
554.09	-0.001
554.28	-0.001
554.48	-0.001
554.68	-0.001
554.87	-0.001
555.07	-0.001
555.27	-0.001
555.47	-0.001
555.66	-0.001
555.86	-0.001
556.06	-0.001
556.25	-0.001
556.45	-0.001
556.65	-0.000
556.84	-0.001
557.04	-0.001
557.24	-0.001
557.43	-0.001
557.63	-0.001
557.83	-0.001
558.02	-0.001
558.22	-0.001
558.42	-0.001
558.61	-0.001
558.81	-0.001
559.01	-0.001
559.21	-0.001
559.40	-0.001
559.60	-0.001
559.80	-0.001
559.99	-0.001
560.19	-0.001
560.39	-0.001
560.58	-0.001
560.78	-0.001
560.97	-0.001
561.17	-0.001
561.37	-0.001
561.56	-0.001
561.76	-0.001
561.96	-0.001
562.15	-0.001
562.35	-0.001
562.55	-0.001
562.74	-0.001
562.94	-0.001
563.14	-0.001
563.33	-0.001
563.53	-0.001
563.73	-0.001
563.92	-0.001
564.12	-0.000
564.31	-0.000
564.51	-0.000
564.71	-0.001
564.90	-0.000
565.10	-0.000
565.30	-0.001
565.49	-0.001
565.69	-0.001
565.89	-0.001
566.08	-0.000
566.28	-0.001
566.47	-0.001
566.67	-0.001
566.87	-0.001
567.06	-0.001
567.26	-0.001
567.46	-0.001
567.65	-0.001
567.85	-0.001
568.04	-0.001
568.24	-0.001
568.44	-0.001
568.63	-0.001
568.83	-0.001
569.02	-0.001
569.22	-0.001
569.42	-0.001
569.61	-0.001
569.81	-0.001
570.00	-0.001
570.20	-0.001
570.40	-0.001
570.59	-0.001
570.79	-0.001
570.98	-0.001
571.18	-0.001
571.38	-0.001
571.57	-0.001
571.77	-0.001
571.96	-0.001
572.16	-0.001
572.35	-0.001
572.55	-0.001
572.75	-0.001
572.94	-0.001
573.14	-0.001
573.33	-0.001
573.53	-0.001
573.73	-0.001
573.92	-0.001
574.12	-0.001
574.31	-0.001
574.51	-0.001
574.70	-0.001
574.90	-0.001
575.09	-0.001
575.29	-0.001
575.49	-0.001
575.68	-0.000
575.88	-0.000
576.07	-0.000
576.27	-0.000
576.46	-0.000
576.66	-0.000
576.86	-0.000
577.05	-0.000
577.25	-0.000
577.44	-0.000
577.64	-0.000
577.83	-0.000
578.03	-0.000
578.22	-0.000
578.42	-0.000
578.61	-0.000
578.81	-0.000
579.00	-0.000
579.20	-0.000
579.40	-0.000
579.59	-0.000
579.79	-0.000
579.98	-0.000
580.18	-0.000
580.37	-0.000
580.57	-0.000
580.76	-0.000
580.96	-0.000
581.15	-0.000
581.35	-0.000
581.54	-0.000
581.74	-0.000
581.93	-0.000
582.13	-0.000
582.32	-0.000
582.52	-0.000
582.71	-0.000
582.91	-0.000
583.10	-0.000
583.30	-0.000
583.49	-0.000
583.69	-0.000
583.88	-0.000
584.08	-0.000
584.27	-0.000
584.47	-0.000
584.66	-0.000
584.86	-0.000
585.05	-0.000
585.25	-0.000
585.44	-0.000
585.64	-0.000
585.83	-0.000
586.03	-0.000
586.22	-0.000
586.42	-0.000
586.61	-0.000
586.81	-0.000
587.00	-0.000
587.20	-0.000
587.39	-0.000
587.59	-0.000
587.78	-0.000
587.98	-0.000
588.17	-0.000
588.37	-0.000
588.56	-0.000
588.76	-0.000
588.95	-0.000
589.15	-0.000
589.34	-0.000
589.54	-0.000
589.73	-0.000
589.92	-0.000
590.12	-0.000
590.31	-0.000
590.51	-0.001
590.70	-0.001
590.90	-0.001
591.09	-0.001
591.29	-0.001
591.48	-0.001
591.68	-0.001
591.87	-0.001
592.06	-0.001
592.26	-0.001
592.45	-0.001
592.65	-0.001
592.84	-0.001
593.04	-0.001
593.23	-0.001
593.43	-0.001
593.62	-0.001
593.81	-0.001
594.01	-0.001
594.20	-0.001
594.40	-0.001
594.59	-0.000
594.79	-0.000
594.98	-0.000
595.17	-0.000
595.37	-0.000
595.56	-0.000
595.76	-0.001
595.95	-0.000
596.14	-0.001
596.34	-0.001
596.53	-0.001
596.73	-0.001
596.92	-0.001
597.12	-0.001
597.31	-0.001
597.50	-0.001
597.70	-0.001
597.89	-0.001
598.09	-0.001
598.28	-0.001
598.47	-0.001
598.67	-0.001
598.86	-0.001
599.06	-0.001
599.25	-0.001
599.44	-0.001
599.64	-0.001
599.83	-0.001
600.03	-0.001
600.22	-0.001
600.41	-0.001
600.61	-0.000
600.80	-0.000
601.00	-0.000
601.19	-0.000
601.38	-0.000
601.58	-0.000
601.77	-0.000
601.96	-0.000
602.16	-0.000
602.35	-0.000
602.55	-0.001
602.74	-0.001
602.93	-0.001
603.13	-0.001
603.32	-0.001
603.51	-0.001
603.71	-0.001
603.90	-0.001
604.09	-0.001
604.29	-0.001
604.48	-0.001
604.68	-0.001
604.87	-0.001
605.06	-0.001
605.26	-0.001
605.45	-0.001
605.64	-0.001
605.84	-0.001
606.03	-0.001
606.22	-0.001
606.42	-0.001
606.61	-0.001
606.80	-0.001
607.00	-0.001
607.19	-0.001
607.38	-0.001
607.58	-0.001
607.77	-0.000
607.96	-0.000
608.16	-0.000
608.35	-0.000
608.54	0.000
608.74	0.000
608.93	0.000
609.12	0.000
609.32	0.000
609.51	-0.000
609.70	0.000
609.90	0.000
610.09	-0.000
610.28	-0.000
610.48	-0.000
610.67	-0.000
610.86	-0.000
611.06	-0.000
611.25	-0.000
611.44	-0.001
611.64	-0.001
611.83	-0.001
612.02	-0.001
612.21	-0.001
612.41	-0.001
612.60	-0.001
612.79	-0.001
612.99	-0.001
613.18	-0.001
613.37	-0.001
613.57	-0.001
613.76	-0.001
613.95	-0.001
614.14	-0.001
614.34	-0.001
614.53	-0.001
614.72	-0.001
614.92	-0.000
615.11	-0.000
615.30	-0.000
615.49	-0.000
615.69	-0.000
615.88	-0.000
616.07	-0.000
616.26	-0.000
616.46	-0.000
616.65	-0.000
616.84	-0.000
617.04	-0.000
617.23	-0.000
617.42	-0.000
617.61	-0.000
617.81	-0.000
618.00	0.000
618.19	0.000
618.38	0.000
618.58	-0.000
618.77	-0.000
618.96	-0.000
619.15	-0.000
619.35	-0.000
619.54	-0.000
619.73	-0.001
619.92	-0.001
620.12	-0.001
620.31	-0.001
620.50	-0.001
620.69	-0.001
620.89	-0.001
621.08	-0.001
621.27	-0.001
621.46	-0.001
621.66	-0.001
621.85	-0.001
622.04	-0.001
622.23	-0.001
622.43	-0.001
622.62	-0.000
622.81	-0.000
623.00	-0.000
623.19	-0.000
623.39	-0.000
623.58	-0.000
623.77	-0.000
623.96	-0.000
624.16	-0.000
624.35	-0.000
624.54	-0.000
624.73	-0.000
624.92	-0.000
625.12	-0.000
625.31	-0.000
625.50	-0.000
625.69	-0.000
625.88	-0.000
626.08	-0.000
626.27	-0.000
626.46	-0.000
626.65	-0.000
626.84	-0.000
627.04	-0.000
627.23	-0.000
627.42	-0.000
627.61	-0.000
627.80	-0.000
628.00	-0.000
628.19	-0.000
628.38	-0.000
628.57	-0.000
628.76	-0.000
628.96	-0.000
629.15	0.000
629.34	0.000
629.53	0.000
629.72	0.000
629.91	0.000
630.11	-0.000
630.30	-0.000
630.49	-0.000
630.68	-0.000
630.87	-0.000
631.06	-0.000
631.26	-0.000
631.45	-0.000
631.64	-0.000
631.83	-0.000
632.02	-0.000
632.21	-0.000
632.41	-0.000
632.60	-0.000
632.79	-0.000
632.98	-0.000
633.17	-0.000
633.36	-0.000
633.55	-0.000
633.75	0.000
633.94	0.000
634.13	0.000
634.32	-0.000
634.51	-0.000
634.70	0.000
634.89	-0.000
635.09	-0.000
635.28	-0.000
635.47	-0.000
635.66	-0.000
635.85	-0.000
636.04	-0.000
636.23	-0.000
636.43	-0.000
636.62	-0.000
636.81	-0.000
637.00	-0.000
637.19	-0.000
637.38	-0.000
637.57	-0.000
637.76	-0.000
637.95	-0.000
638.15	-0.000
638.34	0.000
638.53	0.000
638.72	0.000
638.91	0.000
639.10	0.000
639.29	0.000
639.48	-0.000
639.67	-0.000
639.87	-0.000
640.06	-0.000
640.25	-0.000
640.44	-0.000
640.63	-0.000
640.82	-0.000
641.01	-0.000
641.20	-0.000
641.39	-0.000
641.58	-0.000
641.78	-0.000
641.97	-0.000
642.16	-0.000
642.35	-0.000
642.54	-0.000
642.73	-0.000
642.92	-0.000
643.11	-0.000
643.30	-0.000
643.49	-0.000
643.68	-0.000
643.87	-0.000
644.06	-0.000
644.25	-0.000
644.45	-0.000
644.64	-0.000
644.83	-0.000
645.02	-0.000
645.21	-0.000
645.40	-0.000
645.59	-0.000
645.78	-0.000
645.97	-0.000
646.16	-0.000
646.35	-0.000
646.54	-0.000
646.73	-0.000
646.92	-0.000
647.11	-0.001
647.30	-0.001
647.49	-0.001
647.68	-0.001
647.88	-0.001
648.07	-0.001
648.26	-0.001
648.45	-0.001
648.64	-0.000
648.83	-0.000
649.02	-0.000
649.21	-0.000
649.40	-0.000
649.59	-0.000
649.78	-0.000
649.97	-0.000
650.16	-0.000
650.35	-0.000
650.54	-0.000
650.73	-0.000
650.92	0.000
651.11	-0.000
651.30	0.000
651.49	0.000
651.68	0.000
651.87	0.000
652.06	0.000
652.25	0.000
652.44	-0.000
652.63	-0.000
652.82	-0.001
653.01	-0.001
653.20	-0.001
653.39	-0.001
653.58	-0.002
653.77	-0.002
653.96	-0.002
654.15	-0.002
654.34	-0.002
654.53	-0.002
654.72	-0.002
654.91	-0.001
655.10	-0.001
655.29	-0.001
655.48	-0.001
655.67	-0.001
655.86	-0.001
656.05	-0.001
656.24	-0.001
656.43	-0.001
656.62	-0.001
656.81	-0.000
657.00	-0.000
657.19	0.000
657.38	0.000
657.57	0.000
657.76	0.000
657.95	0.001
658.14	0.001
658.33	0.001
658.51	0.001
658.70	0.001
658.89	0.001
659.08	0.001
659.27	0.000
659.46	0.000
659.65	0.000
659.84	0.000
660.03	0.000
660.22	0.000
660.41	0.000
660.60	0.000
660.79	-0.000
660.98	0.000
661.17	0.000
661.36	-0.000
661.55	0.000
661.74	0.000
661.92	0.000
662.11	-0.000
662.30	-0.000
662.49	-0.000
662.68	-0.000
662.87	-0.000
663.06	-0.000
663.25	-0.000
663.44	-0.000
663.63	-0.000
663.82	-0.001
664.01	-0.000
664.20	-0.000
664.38	-0.000
664.57	-0.000
664.76	-0.000
664.95	-0.000
665.14	0.000
665.33	0.000
665.52	0.000
665.71	0.000
665.90	0.000
666.09	0.000
666.28	0.000
666.46	0.000
666.65	0.000
666.84	0.000
667.03	0.000
667.22	0.000
667.41	0.000
667.60	0.000
667.79	0.000
667.98	-0.000
668.16	-0.000
668.35	0.000
668.54	-0.000
668.73	-0.000
668.92	-0.000
669.11	-0.000
669.30	-0.000
669.49	-0.000
669.67	-0.000
669.86	0.000
670.05	0.000
670.24	0.000
670.43	0.000
670.62	0.000
670.81	0.000
671.00	0.000
671.18	-0.000
671.37	-0.000
671.56	-0.000
671.75	-0.000
671.94	-0.000
672.13	-0.000
672.32	-0.000
672.50	-0.000
672.69	-0.000
672.88	-0.000
673.07	-0.000
673.26	-0.000
673.45	-0.000
673.63	-0.000
673.82	-0.000
674.01	-0.000
674.20	-0.000
674.39	-0.000
674.58	-0.001
674.76	-0.001
674.95	-0.001
675.14	-0.001
675.33	-0.000
675.52	-0.000
675.71	-0.000
675.89	-0.000
676.08	-0.000
676.27	-0.000
676.46	-0.000
676.65	0.000
676.84	-0.000
677.02	-0.000
677.21	-0.000
677.40	-0.000
677.59	-0.000
677.78	-0.000
677.96	-0.000
678.15	-0.000
678.34	-0.000
678.53	-0.000
678.72	-0.000
678.90	-0.000
679.09	0.000
679.28	0.000
679.47	-0.000
679.66	-0.000
679.84	-0.000
680.03	-0.000
680.22	-0.000
680.41	-0.000
680.60	-0.000
680.78	-0.000
680.97	-0.000
681.16	0.000
681.35	0.000
681.53	0.000
681.72	0.000
681.91	0.000
682.10	0.000
682.29	0.000
682.47	0.000
682.66	0.000
682.85	0.000
683.04	0.000
683.22	0.000
683.41	0.000
683.60	0.000
683.79	0.000
683.97	0.000
684.16	0.000
684.35	0.000
684.54	-0.000
684.72	-0.000
684.91	-0.000
685.10	-0.000
685.29	-0.000
685.47	-0.000
685.66	-0.000
685.85	-0.000
686.04	-0.000
686.22	-0.000
686.41	0.000
686.60	0.000
686.79	0.000
686.97	0.000
687.16	0.000
687.35	0.000
687.54	0.000
687.72	0.000
687.91	0.000
688.10	0.000
688.29	0.000
688.47	0.000
688.66	0.000
688.85	0.000
689.03	0.000
689.22	-0.000
689.41	-0.000
689.60	0.000
689.78	-0.000
689.97	-0.000
690.16	-0.000
690.34	-0.000
690.53	-0.000
690.72	0.000
690.91	0.000
691.09	0.000
691.28	0.000
691.47	-0.000
691.65	-0.000
691.84	-0.000
692.03	0.000
692.21	0.000
692.40	0.000
692.59	0.000
692.77	0.000
692.96	0.000
693.15	0.000
693.34	0.000
693.52	0.000
693.71	0.000
693.90	0.000
694.08	-0.000
694.27	-0.000
694.46	-0.000
694.64	-0.000
694.83	-0.000
695.02	-0.000
695.20	0.000
695.39	0.000
695.58	0.000
695.76	0.000
695.95	0.000
696.14	0.000
696.32	0.000
696.51	0.001
696.70	0.000
696.88	0.000
697.07	0.000
697.26	-0.000
697.44	-0.000
697.63	-0.000
697.81	-0.000
698.00	-0.000
698.19	-0.000
698.37	-0.000
698.56	-0.000
698.75	-0.000
698.93	-0.000
699.12	-0.000
699.31	-0.000
699.49	-0.000
699.68	-0.000
699.87	-0.000
700.05	-0.000
700.24	-0.000
700.42	-0.000
700.61	-0.000
700.80	-0.000
700.98	-0.000
701.17	-0.000
701.36	0.000
701.54	0.000
701.73	0.000
701.91	0.000
702.10	0.000
702.29	0.001
702.47	0.000
702.66	0.000
702.84	0.000
703.03	0.000
703.22	0.000
703.40	0.000
703.59	0.001
703.77	0.001
703.96	0.000
704.15	0.000
704.33	0.000
704.52	0.000
704.70	0.000
704.89	0.000
705.08	-0.000
705.26	0.000
705.45	-0.000
705.63	-0.000
705.82	-0.000
706.00	-0.000
706.19	-0.000
706.38	0.000
706.56	0.000
706.75	0.000
706.93	0.000
707.12	0.000
707.30	0.001
707.49	0.001
707.68	0.001
707.86	0.001
708.05	0.001
708.23	0.001
708.42	0.001
708.60	0.001
708.79	0.001
708.98	0.000
709.16	0.000
709.35	0.000
709.53	0.000
709.72	0.000
709.90	0.000
710.09	0.000
710.27	0.000
710.46	0.000
710.64	0.000
710.83	0.000
711.02	0.000
711.20	0.000
711.39	0.000
711.57	0.000
711.76	0.000
711.94	0.000
712.13	0.000
712.31	0.000
712.50	0.000
712.68	0.000
712.87	0.000
713.05	0.000
713.24	0.000
713.42	0.000
713.61	0.000
713.79	0.000
713.98	0.000
714.16	0.000
714.35	0.000
714.54	0.000
714.72	0.000
714.91	0.000
715.09	0.000
715.28	0.000
715.46	0.000
715.65	0.000
715.83	0.000
716.02	0.000
716.20	0.000
716.39	0.000
716.57	-0.000
716.76	-0.000
716.94	-0.000
717.12	-0.000
717.31	0.000
717.49	0.000
717.68	0.000
717.86	0.000
718.05	0.000
718.23	0.000
718.42	0.000
718.60	0.001
718.79	0.001
718.97	0.001
719.16	0.001
719.34	0.001
719.53	0.001
719.71	0.000
719.90	0.000
720.08	0.000
720.27	0.000
720.45	0.000
720.63	0.000
720.82	0.000
721.00	-0.000
721.19	-0.000
721.37	0.000
721.56	0.000
721.74	0.000
721.93	0.000
722.11	0.000
722.30	0.000
722.48	0.000
722.66	0.000
722.85	0.000
723.03	0.000
723.22	0.000
723.40	-0.000
723.59	-0.000
723.77	-0.000
723.95	-0.000
724.14	-0.000
724.32	0.000
724.51	0.000
724.69	0.000
724.88	0.000
725.06	0.000
725.24	0.000
725.43	0.001
725.61	0.000
725.80	0.000
725.98	0.000
726.16	0.000
726.35	0.000
726.53	0.000
726.72	-0.000
726.90	-0.000
727.09	-0.000
727.27	-0.000
727.45	-0.000
727.64	-0.000
727.82	-0.000
728.01	-0.000
728.19	-0.001
728.37	-0.001
728.56	-0.000
728.74	-0.001
728.92	-0.001
729.11	-0.001
729.29	-0.001
729.48	-0.001
729.66	-0.001
729.84	-0.001
730.03	-0.001
730.21	-0.001
730.40	-0.001
730.58	-0.002
730.76	-0.001
730.95	-0.002
731.13	-0.002
731.31	-0.002
731.50	-0.002
731.68	-0.002
731.86	-0.001
732.05	-0.001
732.23	-0.001
732.42	-0.001
732.60	-0.001
732.78	-0.001
732.97	-0.001
733.15	-0.000
733.33	-0.001
733.52	-0.000
733.70	-0.001
733.88	-0.001
734.07	-0.002
734.25	-0.002
734.43	-0.002
734.62	-0.002
734.80	-0.002
734.98	-0.002
735.17	-0.003
735.35	-0.002
735.53	-0.002
735.72	-0.002
735.90	-0.001
736.08	-0.001
736.27	-0.001
736.45	-0.000
736.63	-0.000
736.82	-0.000
737.00	-0.000
737.18	0.000
737.37	0.000
737.55	0.001
737.73	0.000
737.92	-0.000
738.10	-0.001
738.28	-0.001
738.46	-0.000
738.65	-0.000
738.83	-0.001
739.01	-0.001
739.20	-0.001
739.38	-0.001
739.56	-0.001
739.75	-0.001
739.93	-0.000
740.11	-0.000
740.29	0.000
740.48	0.000
740.66	-0.000
740.84	0.000
741.03	0.001
741.21	0.001
741.39	0.001
741.57	0.001
741.76	0.000
741.94	-0.000
742.12	0.000
742.31	0.000
742.49	0.001
742.67	0.001
742.85	0.000
743.04	0.000
743.22	0.000
743.40	0.001
743.58	0.001
743.77	0.000
743.95	0.000
744.13	0.000
744.31	0.000
744.50	-0.001
744.68	-0.000
744.86	-0.000
745.04	-0.000
745.23	-0.001
745.41	-0.001
745.59	-0.001
745.77	-0.001
745.96	-0.001
746.14	-0.001
746.32	-0.001
746.50	-0.001
746.69	-0.001
746.87	-0.000
747.05	-0.000
747.23	0.000
747.42	0.001
747.60	0.000
747.78	0.000
747.96	0.001
748.14	0.000
748.33	0.000
748.51	0.000
748.69	0.000
748.87	0.000
749.06	0.000
749.24	0.000
749.42	-0.000
749.60	0.001
749.78	0.000
749.97	0.001
750.15	0.001
750.33	0.000
750.51	0.000
750.69	-0.000
750.88	-0.000
751.06	-0.001
751.24	-0.001
751.42	-0.001
751.60	-0.002
751.79	-0.002
751.97	-0.002
752.15	-0.001
752.33	-0.001
752.51	-0.000
752.69	-0.000
752.88	-0.000
753.06	0.000
753.24	0.000
753.42	0.001
753.60	0.001
753.78	0.001
753.97	-0.000
754.15	-0.001
754.33	-0.001
754.51	-0.002
754.69	-0.002
754.87	-0.003
755.06	-0.003
755.24	-0.003
755.42	-0.004
755.60	-0.004
755.78	-0.004
755.96	-0.003
756.15	-0.003
756.33	-0.002
756.51	-0.001
756.69	-0.001
756.87	-0.001
757.05	-0.001
757.23	-0.001
757.42	-0.000
757.60	-0.000
757.78	-0.001
757.96	-0.000
758.14	-0.000
758.32	-0.001
758.50	-0.001
758.69	-0.001
758.87	-0.001
759.05	-0.000
759.23	-0.000
759.41	0.000
759.59	0.000
759.77	-0.000
759.95	-0.000
760.13	0.000
760.32	0.001
760.50	0.001
760.68	0.001
760.86	0.001
761.04	0.000
761.22	0.000
761.40	-0.000
761.58	0.000
761.76	0.000
761.95	-0.000
762.13	-0.001
762.31	-0.000
762.49	-0.000
762.67	-0.001
762.85	-0.001
763.03	-0.001
763.21	-0.001
763.39	-0.000
763.57	-0.001
763.75	-0.001
763.94	-0.001
764.12	-0.000
764.30	-0.001
764.48	-0.001
764.66	-0.001
764.84	-0.002
765.02	-0.002
765.20	-0.001
765.38	-0.002
765.56	-0.002
765.74	-0.002
765.92	-0.001
766.10	-0.001
766.28	-0.001
766.46	-0.001
766.65	-0.000
766.83	0.000
767.01	0.001
767.19	0.001
767.37	0.001
767.55	0.001
767.73	0.001
767.91	0.001
768.09	0.001
768.27	0.001
768.45	0.001
768.63	0.001
768.81	-0.000
768.99	-0.000
769.17	-0.000
769.35	-0.000
769.53	-0.000
769.71	-0.001
769.89	-0.001
770.07	-0.001
770.25	-0.001
770.43	-0.001
770.61	-0.001
770.79	-0.001
770.97	-0.001
771.15	-0.001
771.33	-0.000
771.51	-0.001
771.69	-0.001
771.87	-0.000
772.05	-0.000
772.24	0.000
772.42	-0.000
772.60	-0.000
772.78	0.000
772.96	0.001
773.14	0.000
773.32	0.000
773.49	0.000
773.67	0.000
773.85	0.000
774.03	-0.000
774.21	-0.000
774.39	0.000
774.57	0.001
774.75	0.000
774.93	0.001
775.11	0.001
775.29	0.000
775.47	0.001
775.65	0.000
775.83	0.001
776.01	0.001
776.19	0.001
776.37	0.001
776.55	0.000
776.73	0.000
776.91	0.000
777.09	-0.000
777.27	-0.000
777.45	-0.000
777.63	0.001
777.81	-0.000
777.99	-0.001
778.17	-0.001
778.35	-0.001
778.53	-0.001
778.71	-0.001
778.89	-0.001
779.07	-0.000
779.24	-0.000
779.42	-0.000
779.60	-0.000
779.78	0.001
779.96	0.001
780.14	0.000
780.32	0.001
780.50	0.001
780.68	0.000
780.86	0.000
781.04	-0.000
781.22	0.000
781.40	0.000
781.58	-0.000
781.75	-0.000
781.93	-0.000
782.11	-0.000
782.29	-0.000
782.47	-0.000
782.65	-0.000
782.83	-0.000
783.01	0.000
783.19	0.000
783.37	0.000
783.55	-0.000
783.72	-0.000
783.90	-0.001
784.08	-0.001
784.26	-0.000
784.44	-0.000
784.62	-0.001
784.80	-0.000
784.98	-0.001
785.16	-0.001
785.33	-0.001
785.51	-0.001
785.69	-0.000
785.87	0.000
786.05	0.000
786.23	-0.000
786.41	-0.000
786.59	-0.000
786.77	-0.001
786.94	-0.001
787.12	-0.000
787.30	-0.000
787.48	0.000
787.66	0.000
787.84	0.000
788.02	0.000
788.19	0.000
788.37	0.000
788.55	0.001
788.73	0.001
788.91	0.001
789.09	0.000
789.27	0.000
789.44	-0.000
789.62	-0.000
789.80	-0.000
789.98	-0.000
790.16	-0.001
790.34	-0.001
790.51	-0.000
790.69	0.000
790.87	0.000
791.05	0.000
791.23	0.000
791.41	0.001
791.58	0.001
791.76	0.001
791.94	0.001
792.12	0.001
792.30	0.001
792.48	0.000
792.65	-0.000
792.83	-0.000
793.01	-0.000
793.19	-0.000
793.37	-0.000
793.54	-0.000
793.72	-0.000
793.90	-0.000
794.08	-0.000
794.26	-0.000
794.43	-0.000
794.61	-0.000
794.79	-0.000
794.97	-0.000
795.15	-0.000
795.32	0.000
795.50	0.000
795.68	0.000
795.86	0.000
796.04	0.001
796.21	0.000
796.39	0.000
796.57	-0.000
796.75	0.000
796.92	-0.000
797.10	-0.000
797.28	0.000
797.46	-0.000
797.64	0.000
797.81	0.000
797.99	-0.000
798.17	0.000
798.35	0.001
798.52	0.001
798.70	0.001
798.88	0.001
799.06	0.001
799.23	0.001
799.41	0.001
799.59	0.001
799.77	0.000
799.94	0.000
800.12	0.000
800.30	0.000
800.48	0.001
800.65	0.001
800.83	0.001
801.01	0.001
801.19	0.001
801.36	0.001
801.54	0.001
801.72	0.001
801.90	0.001
802.07	0.001
802.25	0.000
802.43	0.001
802.60	0.000
802.78	0.000
802.96	0.000
803.14	0.000
803.31	0.000
803.49	-0.000
803.67	-0.000
803.84	-0.000
804.02	-0.001
804.20	-0.001
804.38	-0.001
804.55	-0.000
804.73	-0.000
804.91	-0.001
805.08	-0.001
805.26	-0.000
805.44	-0.001
805.61	-0.001
805.79	-0.001
805.97	-0.001
806.15	-0.000
806.32	-0.000
806.50	-0.000
806.68	-0.000
806.85	-0.000
807.03	0.000
807.21	0.000
807.38	-0.000
807.56	0.000
807.74	0.000
807.91	0.000
808.09	0.000
808.27	0.000
808.44	0.000
808.62	0.000
808.80	0.000
808.97	0.000
809.15	0.000
809.33	0.001
809.50	0.001
809.68	0.001
809.86	0.001
810.03	0.001
810.21	0.001
810.39	0.001
810.56	0.000
810.74	0.001
810.91	0.001
811.09	0.001
811.27	0.001
811.44	0.001
811.62	0.001
811.80	0.000
811.97	0.001
812.15	0.001
812.33	0.000
812.50	0.001
812.68	0.000
812.85	-0.000
813.03	0.000
813.21	0.000
813.38	0.000
813.56	-0.000
813.74	-0.000
813.91	-0.000
814.09	-0.000
814.26	-0.000
814.44	0.000
814.62	0.000
814.79	0.001
814.97	0.000
815.14	0.001
815.32	0.001
815.50	0.000
815.67	0.001
815.85	0.000
816.02	0.000
816.20	0.001
816.38	0.000
816.55	0.001
816.73	0.000
816.90	0.001
817.08	0.000
817.26	0.001
817.43	0.001
817.61	0.000
817.78	0.001
817.96	0.001
818.13	0.000
818.31	0.001
818.49	0.000
818.66	0.001
818.84	0.001
819.01	0.001
819.19	0.001
819.36	0.001
819.54	0.001
819.71	0.001
819.89	0.001
820.07	0.002
820.24	0.001
820.42	0.002
820.59	0.002
820.77	0.001
820.94	0.001
821.12	0.001
821.29	0.001
821.47	0.001
821.64	0.001
821.82	0.001
822.00	0.000
822.17	0.000
822.35	0.000
822.52	0.001
822.70	0.001
822.87	0.000
823.05	0.000
823.22	-0.000
823.40	-0.001
823.57	0.000
823.75	0.000
823.92	0.000
824.10	0.001
824.27	0.000
824.45	-0.001
824.62	-0.001
824.80	-0.000
824.97	-0.000
825.15	0.000
825.32	0.000
825.50	-0.000
825.67	0.000
825.85	0.000
826.02	-0.000
826.20	0.001
826.37	0.001
826.55	0.001
826.72	0.000
826.90	0.001
827.07	0.001
827.25	0.001
827.42	-0.000
827.60	-0.001
827.77	-0.001
827.95	-0.001
828.12	-0.002
828.30	-0.001
828.47	-0.001
828.65	-0.002
828.82	-0.002
829.00	-0.002
829.17	-0.002
829.34	-0.001
829.52	0.000
829.69	-0.000
829.87	-0.000
830.04	0.001
830.22	0.001
830.39	0.000
830.57	0.000
830.74	0.000
830.92	0.001
831.09	-0.000
831.26	-0.000
831.44	-0.000
831.61	-0.000
831.79	-0.000
831.96	-0.001
832.14	-0.000
832.31	0.001
832.49	0.003
832.66	0.002
832.83	0.002
833.01	0.003
833.18	0.004
833.36	0.003
833.53	0.003
833.70	0.003
833.88	0.003
834.05	0.003
834.23	0.001
834.40	0.001
834.58	0.002
834.75	0.002
834.92	0.000
835.10	-0.001
835.27	-0.000
835.45	0.001
835.62	-0.001
835.79	-0.001
835.97	-0.002
836.14	-0.002
836.32	-0.003
836.49	-0.003
836.66	-0.003
836.84	-0.003
837.01	-0.003
837.18	-0.002
837.36	-0.003
837.53	-0.001
837.71	0.001
837.88	0.001
838.05	0.002
838.23	0.002
838.40	0.001
838.58	0.003
838.75	0.004
838.92	0.005
839.10	0.005
839.27	0.006
839.44	0.004
839.62	0.004
839.79	0.004
839.96	0.003
840.14	0.005
840.31	0.004
840.48	0.001
840.66	0.001
840.83	0.000
841.01	0.002
841.18	0.001
841.35	0.002
841.53	-0.000
841.70	-0.001
841.87	0.000
842.05	-0.003
842.22	-0.003
842.39	-0.002
842.57	-0.002
842.74	-0.002
842.91	-0.003
843.09	-0.005
843.26	-0.005
843.43	-0.004
843.60	-0.002
843.78	-0.002
843.95	0.001
844.12	0.003
844.30	0.005
844.47	0.004
844.64	0.004
844.82	0.005
844.99	0.008
845.16	0.008
845.34	0.009
845.51	0.008
845.68	0.006
845.85	0.005
846.03	0.003
846.20	0.002
846.37	0.002
846.55	0.001
846.72	-0.001
846.89	-0.001
847.06	-0.002
847.24	-0.002
847.41	-0.003
847.58	-0.002
847.76	-0.000
847.93	0.001
848.10	0.002
848.27	0.002
848.45	0.005
848.62	0.005
848.79	0.005
848.97	0.004
849.14	0.003
849.31	0.003
849.48	0.006
849.66	0.002
849.83	0.002
850.00	0.002
850.17	0.002
850.35	0.000
850.52	-0.002
850.69	-0.006
850.86	-0.004
851.04	-0.005
851.21	-0.003
851.38	-0.004
851.55	-0.004
851.72	-0.005
851.90	-0.007
852.07	-0.006
852.24	-0.006
852.41	-0.004
852.59	-0.002
852.76	-0.002
852.93	-0.001
853.10	-0.002
853.28	-0.003
853.45	0.000
853.62	0.001
853.79	0.003
853.96	0.002
854.14	0.001
854.31	0.000
854.48	0.002
854.65	0.004
854.82	0.004
855.00	0.005
855.17	0.003
855.34	0.003
855.51	0.001
855.68	0.001
855.86	0.002
856.03	0.004
856.20	0.004
856.37	0.003
856.54	-0.001
856.72	0.000
856.89	0.001
857.06	0.003
857.23	0.002
857.40	0.003
857.57	0.003
857.75	0.002
857.92	0.001
858.09	-0.002
858.26	0.001
858.43	0.003
858.60	0.004
858.78	0.002
858.95	0.002
859.12	0.002
859.29	0.002
859.46	0.003
859.63	0.004
859.81	0.006
859.98	0.011
860.15	0.009
860.32	0.009
860.49	0.007
860.66	0.008
860.83	0.009
861.01	0.011
861.18	0.007
861.35	0.004
861.52	0.006
861.69	0.005
861.86	0.005
862.03	0.004
862.21	0.004
862.38	0.002
862.55	0.002
862.72	-0.000
862.89	-0.002
863.06	0.002
863.23	0.003
863.40	0.000
863.58	0.000
863.75	0.000
863.92	0.002
864.09	0.002
864.26	0.003
864.43	0.002
864.60	0.003
864.77	0.006
864.94	0.005
865.11	0.008
865.29	0.004
865.46	0.002
865.63	0.001
865.80	0.003
865.97	0.004
866.14	0.001
866.31	0.002
866.48	0.002
866.65	-0.001
866.82	-0.001
866.99	-0.004
867.16	-0.003
867.34	-0.001
867.51	-0.004
867.68	-0.007
867.85	-0.010
868.02	-0.007
868.19	-0.007
868.36	-0.008
868.53	-0.006
868.70	-0.005
868.87	-0.006
869.04	-0.004
869.21	-0.001
869.38	0.001
869.55	0.003
869.72	0.004
869.89	0.002
870.06	0.000
870.24	0.001
870.41	0.002
870.58	0.003
870.75	0.003
870.92	0.002
871.09	0.003
871.26	0.005
871.43	0.005
871.60	0.007
871.77	0.007
871.94	0.006
872.11	0.007
872.28	0.005
872.45	0.004
872.62	0.005
872.79	0.003
872.96	-0.005
873.13	-0.010
873.30	-0.013
873.47	-0.010
873.64	-0.004
873.81	-0.002
873.98	0.000
874.15	-0.003
874.32	-0.003
874.49	-0.002
874.66	0.005
874.83	0.010
875.00	0.011
875.17	0.013
875.34	0.004
875.51	0.002
875.68	-0.000
875.85	-0.011
876.02	-0.008
876.19	-0.008
876.36	-0.004
876.53	-0.003
876.70	-0.007
876.87	-0.007
877.04	-0.010
877.21	-0.010
877.38	-0.012
877.55	-0.010
877.72	-0.005
877.89	-0.004
878.06	-0.007
878.23	-0.016
878.39	-0.016
878.56	-0.014
878.73	-0.012
878.90	-0.006
879.07	-0.002
879.24	-0.003
879.41	-0.003
879.58	-0.006
879.75	-0.006
879.92	0.002
880.09	0.007
880.26	0.001
880.43	0.002
880.60	0.004
880.77	-0.001
880.94	0.000
881.11	0.006
881.27	0.002
881.44	0.006
881.61	0.003
881.78	-0.002
881.95	0.000
882.12	0.001
882.29	0.008
882.46	0.008
882.63	0.012
882.80	0.010
882.97	0.008
883.14	0.007
883.30	0.006
883.47	0.007
883.64	0.002
883.81	-0.008
883.98	-0.007
884.15	-0.011
884.32	-0.017
884.49	-0.019
884.66	-0.016
884.82	-0.010
884.99	-0.009
885.16	-0.010
885.33	-0.014
885.50	-0.005
885.67	0.002
885.84	0.002
886.01	-0.004
886.17	-0.013
886.34	-0.016
886.51	-0.012
886.68	-0.019
886.85	-0.019
887.02	-0.019
887.19	-0.021
887.36	-0.027
887.52	-0.030
887.69	-0.036
887.86	-0.035
888.03	-0.022
888.20	-0.016
888.37	-0.031
888.54	-0.036
888.70	-0.030
888.87	-0.031
889.04	-0.021
889.21	-0.017
889.38	-0.008
889.55	-0.008
889.71	-0.053
889.88	0.054
890.05	0.028
890.22	0.094
890.39	-0.094
>>>>>End Processed Spectral Data<<<<<
