SpectraSuite Data File
++++++++++++++++++++++++++++++++++++
Date: Mon Jun 15 09:17:15 PDT 2015
User: introlabs
Dark Spectrum Present: Yes
Reference Spectrum Present: Yes
Number of Sampled Component Spectra: 1
Spectrometers: USB4H08886
Integration Time (usec): 44366 (USB4H08886)
Spectra Averaged: 20 (USB4H08886)
Boxcar Smoothing: 5 (USB4H08886)
Correct for Electrical Dark: Yes (USB4H08886)
Strobe/Lamp Enabled: No (USB4H08886)
Correct for Detector Non-linearity: Yes (USB4H08886)
Correct for Stray Light: Yes (USB4H08886)
Number of Pixels in Processed Spectrum: 3648
>>>>>Begin Processed Spectral Data<<<<<
178.14	-0.000
178.36	-0.000
178.57	-0.000
178.79	-0.000
179.01	-0.932
179.22	-0.000
179.44	-0.000
179.65	-0.322
179.87	0.013
180.08	0.286
180.30	0.095
180.52	0.276
180.73	0.309
180.95	0.105
181.16	0.037
181.38	0.009
181.59	0.001
181.81	-0.001
182.03	0.003
182.24	0.009
182.46	0.010
182.67	0.017
182.89	0.006
183.10	0.011
183.32	0.005
183.54	-0.008
183.75	-0.008
183.97	-0.009
184.18	-0.009
184.40	-0.013
184.61	-0.011
184.83	-0.014
185.04	-0.021
185.26	-0.017
185.48	-0.024
185.69	-0.026
185.91	-0.011
186.12	-0.016
186.34	-0.003
186.55	-0.010
186.77	-0.003
186.98	-0.008
187.20	-0.010
187.42	-0.005
187.63	-0.002
187.85	-0.003
188.06	0.010
188.28	0.007
188.49	0.010
188.71	0.007
188.92	0.009
189.14	-0.002
189.36	0.002
189.57	0.004
189.79	-0.001
190.00	-0.004
190.22	-0.000
190.43	0.001
190.65	-0.005
190.86	0.005
191.08	0.005
191.29	0.009
191.51	0.012
191.72	0.012
191.94	0.010
192.16	0.017
192.37	0.020
192.59	0.023
192.80	0.014
193.02	0.024
193.23	0.023
193.45	0.016
193.66	0.014
193.88	0.018
194.09	0.015
194.31	0.015
194.52	0.005
194.74	-0.007
194.95	-0.016
195.17	-0.014
195.38	-0.024
195.60	-0.035
195.81	-0.027
196.03	-0.027
196.25	-0.023
196.46	-0.026
196.68	-0.027
196.89	-0.015
197.11	-0.005
197.32	-0.004
197.54	-0.010
197.75	0.003
197.97	0.012
198.18	0.003
198.40	0.007
198.61	-0.005
198.83	-0.006
199.04	-0.003
199.26	-0.019
199.47	-0.024
199.69	-0.016
199.90	-0.001
200.12	-0.009
200.33	-0.013
200.55	-0.013
200.76	-0.020
200.98	-0.021
201.19	-0.021
201.41	-0.024
201.62	-0.014
201.84	-0.007
202.05	-0.006
202.27	-0.016
202.48	-0.017
202.70	-0.010
202.91	-0.006
203.13	-0.011
203.34	-0.006
203.56	-0.006
203.77	-0.007
203.99	-0.016
204.20	-0.024
204.42	-0.028
204.63	-0.025
204.85	-0.025
205.06	-0.034
205.28	-0.034
205.49	-0.024
205.71	-0.022
205.92	-0.025
206.14	-0.029
206.35	-0.018
206.56	-0.011
206.78	-0.012
206.99	-0.014
207.21	-0.012
207.42	-0.008
207.64	-0.008
207.85	-0.010
208.07	-0.012
208.28	-0.002
208.50	0.003
208.71	0.002
208.93	0.006
209.14	0.010
209.36	0.010
209.57	0.016
209.79	0.019
210.00	0.022
210.22	0.022
210.43	0.023
210.64	0.022
210.86	0.021
211.07	0.010
211.29	0.000
211.50	-0.006
211.72	-0.015
211.93	-0.022
212.15	-0.023
212.36	-0.028
212.58	-0.029
212.79	-0.033
213.01	-0.044
213.22	-0.038
213.43	-0.034
213.65	-0.028
213.86	-0.027
214.08	-0.015
214.29	-0.011
214.51	-0.014
214.72	-0.015
214.94	-0.016
215.15	-0.010
215.36	-0.005
215.58	-0.011
215.79	-0.015
216.01	-0.010
216.22	-0.009
216.44	-0.016
216.65	-0.018
216.87	-0.012
217.08	-0.014
217.29	-0.004
217.51	-0.004
217.72	-0.008
217.94	-0.003
218.15	0.006
218.37	-0.003
218.58	-0.003
218.80	0.000
219.01	-0.004
219.22	-0.013
219.44	-0.009
219.65	-0.019
219.87	-0.017
220.08	-0.015
220.30	-0.023
220.51	-0.029
220.72	-0.030
220.94	-0.035
221.15	-0.038
221.37	-0.039
221.58	-0.038
221.79	-0.034
222.01	-0.035
222.22	-0.040
222.44	-0.042
222.65	-0.042
222.87	-0.040
223.08	-0.033
223.29	-0.033
223.51	-0.028
223.72	-0.030
223.94	-0.030
224.15	-0.037
224.36	-0.034
224.58	-0.038
224.79	-0.034
225.01	-0.034
225.22	-0.033
225.44	-0.038
225.65	-0.034
225.86	-0.035
226.08	-0.035
226.29	-0.037
226.51	-0.033
226.72	-0.038
226.93	-0.034
227.15	-0.039
227.36	-0.040
227.58	-0.046
227.79	-0.041
228.00	-0.042
228.22	-0.051
228.43	-0.053
228.65	-0.054
228.86	-0.058
229.07	-0.057
229.29	-0.059
229.50	-0.061
229.72	-0.060
229.93	-0.058
230.14	-0.064
230.36	-0.068
230.57	-0.064
230.78	-0.066
231.00	-0.069
231.21	-0.071
231.43	-0.074
231.64	-0.074
231.85	-0.073
232.07	-0.076
232.28	-0.079
232.50	-0.080
232.71	-0.082
232.92	-0.084
233.14	-0.085
233.35	-0.082
233.56	-0.082
233.78	-0.083
233.99	-0.085
234.21	-0.086
234.42	-0.086
234.63	-0.086
234.85	-0.085
235.06	-0.085
235.27	-0.084
235.49	-0.084
235.70	-0.086
235.91	-0.087
236.13	-0.086
236.34	-0.085
236.56	-0.086
236.77	-0.086
236.98	-0.085
237.20	-0.085
237.41	-0.085
237.62	-0.085
237.84	-0.085
238.05	-0.084
238.26	-0.084
238.48	-0.084
238.69	-0.083
238.91	-0.082
239.12	-0.082
239.33	-0.082
239.55	-0.080
239.76	-0.080
239.97	-0.078
240.19	-0.076
240.40	-0.076
240.61	-0.075
240.83	-0.074
241.04	-0.075
241.25	-0.074
241.47	-0.073
241.68	-0.071
241.89	-0.071
242.11	-0.072
242.32	-0.072
242.53	-0.072
242.75	-0.071
242.96	-0.070
243.17	-0.069
243.39	-0.068
243.60	-0.068
243.81	-0.068
244.03	-0.068
244.24	-0.067
244.45	-0.065
244.67	-0.064
244.88	-0.062
245.09	-0.062
245.31	-0.061
245.52	-0.061
245.73	-0.061
245.95	-0.060
246.16	-0.059
246.37	-0.059
246.59	-0.058
246.80	-0.058
247.01	-0.057
247.23	-0.057
247.44	-0.057
247.65	-0.057
247.87	-0.056
248.08	-0.055
248.29	-0.055
248.51	-0.054
248.72	-0.053
248.93	-0.053
249.15	-0.053
249.36	-0.053
249.57	-0.053
249.78	-0.053
250.00	-0.052
250.21	-0.052
250.42	-0.052
250.64	-0.051
250.85	-0.051
251.06	-0.051
251.28	-0.050
251.49	-0.050
251.70	-0.050
251.92	-0.049
252.13	-0.048
252.34	-0.048
252.55	-0.048
252.77	-0.048
252.98	-0.047
253.19	-0.047
253.41	-0.047
253.62	-0.046
253.83	-0.046
254.05	-0.045
254.26	-0.045
254.47	-0.045
254.68	-0.046
254.90	-0.045
255.11	-0.045
255.32	-0.044
255.54	-0.044
255.75	-0.044
255.96	-0.043
256.17	-0.044
256.39	-0.043
256.60	-0.043
256.81	-0.043
257.03	-0.042
257.24	-0.042
257.45	-0.042
257.66	-0.043
257.88	-0.043
258.09	-0.043
258.30	-0.043
258.51	-0.043
258.73	-0.043
258.94	-0.043
259.15	-0.043
259.37	-0.043
259.58	-0.043
259.79	-0.044
260.00	-0.043
260.22	-0.043
260.43	-0.043
260.64	-0.043
260.85	-0.043
261.07	-0.043
261.28	-0.044
261.49	-0.044
261.71	-0.043
261.92	-0.043
262.13	-0.043
262.34	-0.043
262.56	-0.043
262.77	-0.043
262.98	-0.044
263.19	-0.044
263.41	-0.044
263.62	-0.044
263.83	-0.045
264.04	-0.045
264.26	-0.045
264.47	-0.045
264.68	-0.045
264.89	-0.045
265.11	-0.045
265.32	-0.045
265.53	-0.045
265.74	-0.045
265.96	-0.046
266.17	-0.045
266.38	-0.045
266.59	-0.045
266.81	-0.045
267.02	-0.046
267.23	-0.046
267.44	-0.047
267.65	-0.047
267.87	-0.047
268.08	-0.048
268.29	-0.048
268.50	-0.048
268.72	-0.048
268.93	-0.048
269.14	-0.048
269.35	-0.048
269.57	-0.049
269.78	-0.049
269.99	-0.049
270.20	-0.049
270.41	-0.049
270.63	-0.049
270.84	-0.050
271.05	-0.050
271.26	-0.050
271.48	-0.050
271.69	-0.051
271.90	-0.051
272.11	-0.050
272.32	-0.051
272.54	-0.051
272.75	-0.051
272.96	-0.052
273.17	-0.052
273.39	-0.051
273.60	-0.051
273.81	-0.052
274.02	-0.052
274.23	-0.052
274.45	-0.052
274.66	-0.052
274.87	-0.053
275.08	-0.053
275.29	-0.053
275.51	-0.053
275.72	-0.053
275.93	-0.053
276.14	-0.053
276.35	-0.053
276.57	-0.053
276.78	-0.053
276.99	-0.053
277.20	-0.053
277.41	-0.053
277.63	-0.052
277.84	-0.052
278.05	-0.052
278.26	-0.052
278.47	-0.052
278.69	-0.052
278.90	-0.051
279.11	-0.051
279.32	-0.051
279.53	-0.050
279.74	-0.050
279.96	-0.050
280.17	-0.050
280.38	-0.050
280.59	-0.049
280.80	-0.049
281.02	-0.049
281.23	-0.049
281.44	-0.048
281.65	-0.048
281.86	-0.048
282.07	-0.047
282.29	-0.047
282.50	-0.047
282.71	-0.047
282.92	-0.047
283.13	-0.047
283.35	-0.046
283.56	-0.046
283.77	-0.046
283.98	-0.046
284.19	-0.045
284.40	-0.045
284.62	-0.045
284.83	-0.044
285.04	-0.044
285.25	-0.043
285.46	-0.042
285.67	-0.042
285.88	-0.041
286.10	-0.040
286.31	-0.039
286.52	-0.039
286.73	-0.038
286.94	-0.037
287.15	-0.036
287.37	-0.036
287.58	-0.035
287.79	-0.035
288.00	-0.034
288.21	-0.033
288.42	-0.033
288.63	-0.032
288.85	-0.032
289.06	-0.031
289.27	-0.030
289.48	-0.030
289.69	-0.029
289.90	-0.028
290.11	-0.028
290.33	-0.027
290.54	-0.027
290.75	-0.026
290.96	-0.026
291.17	-0.025
291.38	-0.025
291.59	-0.024
291.81	-0.024
292.02	-0.024
292.23	-0.023
292.44	-0.023
292.65	-0.023
292.86	-0.022
293.07	-0.022
293.28	-0.022
293.50	-0.022
293.71	-0.022
293.92	-0.021
294.13	-0.021
294.34	-0.021
294.55	-0.021
294.76	-0.020
294.97	-0.020
295.19	-0.020
295.40	-0.020
295.61	-0.020
295.82	-0.020
296.03	-0.020
296.24	-0.020
296.45	-0.020
296.66	-0.020
296.87	-0.019
297.09	-0.019
297.30	-0.019
297.51	-0.019
297.72	-0.019
297.93	-0.019
298.14	-0.018
298.35	-0.018
298.56	-0.018
298.77	-0.018
298.99	-0.018
299.20	-0.018
299.41	-0.018
299.62	-0.018
299.83	-0.018
300.04	-0.018
300.25	-0.017
300.46	-0.017
300.67	-0.017
300.88	-0.017
301.10	-0.017
301.31	-0.017
301.52	-0.017
301.73	-0.017
301.94	-0.016
302.15	-0.017
302.36	-0.017
302.57	-0.016
302.78	-0.017
302.99	-0.017
303.20	-0.017
303.41	-0.017
303.63	-0.017
303.84	-0.016
304.05	-0.017
304.26	-0.016
304.47	-0.016
304.68	-0.016
304.89	-0.016
305.10	-0.016
305.31	-0.016
305.52	-0.016
305.73	-0.016
305.94	-0.016
306.15	-0.016
306.37	-0.015
306.58	-0.015
306.79	-0.015
307.00	-0.015
307.21	-0.015
307.42	-0.015
307.63	-0.015
307.84	-0.015
308.05	-0.015
308.26	-0.015
308.47	-0.015
308.68	-0.015
308.89	-0.015
309.10	-0.015
309.31	-0.015
309.52	-0.014
309.73	-0.014
309.95	-0.014
310.16	-0.014
310.37	-0.014
310.58	-0.014
310.79	-0.014
311.00	-0.014
311.21	-0.014
311.42	-0.014
311.63	-0.014
311.84	-0.014
312.05	-0.014
312.26	-0.014
312.47	-0.014
312.68	-0.013
312.89	-0.013
313.10	-0.013
313.31	-0.013
313.52	-0.013
313.73	-0.013
313.94	-0.013
314.15	-0.013
314.36	-0.013
314.57	-0.013
314.78	-0.013
314.99	-0.013
315.21	-0.013
315.42	-0.013
315.63	-0.013
315.84	-0.013
316.05	-0.013
316.26	-0.013
316.47	-0.013
316.68	-0.013
316.89	-0.013
317.10	-0.013
317.31	-0.013
317.52	-0.013
317.73	-0.012
317.94	-0.012
318.15	-0.012
318.36	-0.012
318.57	-0.012
318.78	-0.012
318.99	-0.012
319.20	-0.012
319.41	-0.012
319.62	-0.012
319.83	-0.012
320.04	-0.012
320.25	-0.012
320.46	-0.012
320.67	-0.012
320.88	-0.012
321.09	-0.012
321.30	-0.012
321.51	-0.012
321.72	-0.012
321.93	-0.012
322.14	-0.012
322.35	-0.012
322.56	-0.012
322.77	-0.011
322.98	-0.011
323.19	-0.011
323.40	-0.011
323.61	-0.011
323.82	-0.011
324.03	-0.011
324.24	-0.011
324.45	-0.011
324.66	-0.011
324.87	-0.011
325.08	-0.011
325.29	-0.011
325.50	-0.011
325.71	-0.011
325.92	-0.011
326.13	-0.011
326.34	-0.011
326.55	-0.011
326.76	-0.011
326.97	-0.011
327.18	-0.011
327.39	-0.010
327.60	-0.010
327.80	-0.010
328.01	-0.010
328.22	-0.010
328.43	-0.010
328.64	-0.010
328.85	-0.010
329.06	-0.010
329.27	-0.010
329.48	-0.010
329.69	-0.010
329.90	-0.010
330.11	-0.010
330.32	-0.010
330.53	-0.010
330.74	-0.010
330.95	-0.010
331.16	-0.010
331.37	-0.010
331.58	-0.010
331.79	-0.010
332.00	-0.010
332.21	-0.010
332.42	-0.010
332.63	-0.010
332.83	-0.010
333.04	-0.010
333.25	-0.010
333.46	-0.010
333.67	-0.010
333.88	-0.010
334.09	-0.010
334.30	-0.010
334.51	-0.010
334.72	-0.010
334.93	-0.010
335.14	-0.010
335.35	-0.010
335.56	-0.010
335.77	-0.010
335.98	-0.010
336.18	-0.010
336.39	-0.010
336.60	-0.010
336.81	-0.010
337.02	-0.010
337.23	-0.010
337.44	-0.010
337.65	-0.010
337.86	-0.010
338.07	-0.010
338.28	-0.010
338.49	-0.010
338.70	-0.010
338.91	-0.010
339.11	-0.010
339.32	-0.010
339.53	-0.010
339.74	-0.010
339.95	-0.010
340.16	-0.010
340.37	-0.010
340.58	-0.010
340.79	-0.010
341.00	-0.010
341.21	-0.010
341.41	-0.010
341.62	-0.010
341.83	-0.010
342.04	-0.010
342.25	-0.010
342.46	-0.010
342.67	-0.011
342.88	-0.011
343.09	-0.010
343.30	-0.010
343.50	-0.010
343.71	-0.010
343.92	-0.010
344.13	-0.010
344.34	-0.010
344.55	-0.010
344.76	-0.010
344.97	-0.010
345.18	-0.010
345.38	-0.010
345.59	-0.010
345.80	-0.010
346.01	-0.010
346.22	-0.010
346.43	-0.010
346.64	-0.010
346.85	-0.010
347.06	-0.010
347.26	-0.010
347.47	-0.010
347.68	-0.010
347.89	-0.010
348.10	-0.011
348.31	-0.011
348.52	-0.011
348.73	-0.011
348.93	-0.011
349.14	-0.011
349.35	-0.011
349.56	-0.011
349.77	-0.011
349.98	-0.011
350.19	-0.011
350.39	-0.011
350.60	-0.011
350.81	-0.011
351.02	-0.011
351.23	-0.011
351.44	-0.011
351.65	-0.010
351.86	-0.010
352.06	-0.010
352.27	-0.010
352.48	-0.010
352.69	-0.010
352.90	-0.010
353.11	-0.010
353.31	-0.010
353.52	-0.010
353.73	-0.010
353.94	-0.010
354.15	-0.010
354.36	-0.010
354.57	-0.010
354.77	-0.010
354.98	-0.010
355.19	-0.010
355.40	-0.010
355.61	-0.010
355.82	-0.010
356.02	-0.010
356.23	-0.010
356.44	-0.010
356.65	-0.010
356.86	-0.010
357.07	-0.010
357.27	-0.010
357.48	-0.010
357.69	-0.010
357.90	-0.010
358.11	-0.010
358.32	-0.010
358.52	-0.010
358.73	-0.010
358.94	-0.010
359.15	-0.010
359.36	-0.010
359.56	-0.010
359.77	-0.010
359.98	-0.010
360.19	-0.010
360.40	-0.010
360.61	-0.010
360.81	-0.010
361.02	-0.010
361.23	-0.010
361.44	-0.010
361.65	-0.010
361.85	-0.010
362.06	-0.010
362.27	-0.010
362.48	-0.010
362.69	-0.010
362.89	-0.010
363.10	-0.010
363.31	-0.010
363.52	-0.010
363.73	-0.010
363.93	-0.010
364.14	-0.010
364.35	-0.010
364.56	-0.010
364.77	-0.010
364.97	-0.010
365.18	-0.010
365.39	-0.010
365.60	-0.010
365.81	-0.010
366.01	-0.010
366.22	-0.010
366.43	-0.010
366.64	-0.010
366.84	-0.010
367.05	-0.010
367.26	-0.010
367.47	-0.010
367.68	-0.010
367.88	-0.010
368.09	-0.009
368.30	-0.009
368.51	-0.009
368.71	-0.009
368.92	-0.009
369.13	-0.009
369.34	-0.009
369.55	-0.009
369.75	-0.009
369.96	-0.009
370.17	-0.009
370.38	-0.009
370.58	-0.010
370.79	-0.009
371.00	-0.009
371.21	-0.009
371.41	-0.009
371.62	-0.009
371.83	-0.009
372.04	-0.009
372.24	-0.009
372.45	-0.009
372.66	-0.009
372.87	-0.009
373.07	-0.009
373.28	-0.009
373.49	-0.009
373.70	-0.009
373.90	-0.009
374.11	-0.009
374.32	-0.009
374.53	-0.009
374.73	-0.009
374.94	-0.009
375.15	-0.009
375.36	-0.009
375.56	-0.009
375.77	-0.009
375.98	-0.009
376.19	-0.009
376.39	-0.009
376.60	-0.009
376.81	-0.009
377.02	-0.009
377.22	-0.009
377.43	-0.009
377.64	-0.009
377.84	-0.009
378.05	-0.009
378.26	-0.009
378.47	-0.009
378.67	-0.009
378.88	-0.009
379.09	-0.009
379.30	-0.009
379.50	-0.009
379.71	-0.009
379.92	-0.009
380.12	-0.009
380.33	-0.009
380.54	-0.009
380.75	-0.009
380.95	-0.009
381.16	-0.009
381.37	-0.009
381.57	-0.009
381.78	-0.009
381.99	-0.009
382.20	-0.009
382.40	-0.009
382.61	-0.009
382.82	-0.009
383.02	-0.009
383.23	-0.009
383.44	-0.009
383.64	-0.009
383.85	-0.009
384.06	-0.009
384.27	-0.009
384.47	-0.009
384.68	-0.009
384.89	-0.009
385.09	-0.009
385.30	-0.009
385.51	-0.009
385.71	-0.009
385.92	-0.009
386.13	-0.009
386.33	-0.009
386.54	-0.009
386.75	-0.009
386.95	-0.009
387.16	-0.009
387.37	-0.009
387.58	-0.009
387.78	-0.009
387.99	-0.009
388.20	-0.009
388.40	-0.009
388.61	-0.009
388.82	-0.009
389.02	-0.009
389.23	-0.009
389.44	-0.008
389.64	-0.008
389.85	-0.009
390.06	-0.009
390.26	-0.009
390.47	-0.009
390.68	-0.009
390.88	-0.009
391.09	-0.009
391.30	-0.009
391.50	-0.009
391.71	-0.009
391.92	-0.009
392.12	-0.009
392.33	-0.009
392.53	-0.009
392.74	-0.009
392.95	-0.009
393.15	-0.009
393.36	-0.009
393.57	-0.009
393.77	-0.009
393.98	-0.008
394.19	-0.008
394.39	-0.008
394.60	-0.008
394.81	-0.008
395.01	-0.008
395.22	-0.008
395.43	-0.009
395.63	-0.009
395.84	-0.009
396.04	-0.009
396.25	-0.009
396.46	-0.009
396.66	-0.009
396.87	-0.009
397.08	-0.009
397.28	-0.009
397.49	-0.009
397.69	-0.009
397.90	-0.009
398.11	-0.009
398.31	-0.009
398.52	-0.009
398.73	-0.008
398.93	-0.009
399.14	-0.009
399.34	-0.009
399.55	-0.009
399.76	-0.009
399.96	-0.009
400.17	-0.008
400.37	-0.008
400.58	-0.008
400.79	-0.008
400.99	-0.008
401.20	-0.008
401.41	-0.008
401.61	-0.008
401.82	-0.008
402.02	-0.008
402.23	-0.008
402.44	-0.008
402.64	-0.008
402.85	-0.008
403.05	-0.009
403.26	-0.008
403.47	-0.008
403.67	-0.008
403.88	-0.008
404.08	-0.008
404.29	-0.009
404.50	-0.008
404.70	-0.009
404.91	-0.009
405.11	-0.009
405.32	-0.009
405.52	-0.009
405.73	-0.009
405.94	-0.009
406.14	-0.009
406.35	-0.009
406.55	-0.009
406.76	-0.009
406.97	-0.009
407.17	-0.009
407.38	-0.009
407.58	-0.009
407.79	-0.009
407.99	-0.008
408.20	-0.008
408.41	-0.008
408.61	-0.008
408.82	-0.008
409.02	-0.008
409.23	-0.008
409.43	-0.008
409.64	-0.008
409.84	-0.008
410.05	-0.008
410.26	-0.009
410.46	-0.008
410.67	-0.009
410.87	-0.009
411.08	-0.009
411.28	-0.009
411.49	-0.008
411.69	-0.009
411.90	-0.009
412.11	-0.009
412.31	-0.008
412.52	-0.008
412.72	-0.008
412.93	-0.008
413.13	-0.008
413.34	-0.008
413.54	-0.008
413.75	-0.008
413.95	-0.008
414.16	-0.008
414.37	-0.008
414.57	-0.008
414.78	-0.008
414.98	-0.008
415.19	-0.008
415.39	-0.008
415.60	-0.008
415.80	-0.008
416.01	-0.008
416.21	-0.008
416.42	-0.008
416.62	-0.009
416.83	-0.009
417.03	-0.009
417.24	-0.009
417.44	-0.009
417.65	-0.009
417.86	-0.009
418.06	-0.009
418.27	-0.009
418.47	-0.009
418.68	-0.009
418.88	-0.009
419.09	-0.009
419.29	-0.009
419.50	-0.009
419.70	-0.009
419.91	-0.009
420.11	-0.009
420.32	-0.009
420.52	-0.009
420.73	-0.009
420.93	-0.009
421.14	-0.009
421.34	-0.009
421.55	-0.009
421.75	-0.009
421.96	-0.009
422.16	-0.009
422.37	-0.009
422.57	-0.009
422.78	-0.009
422.98	-0.009
423.19	-0.009
423.39	-0.009
423.60	-0.009
423.80	-0.009
424.01	-0.009
424.21	-0.008
424.42	-0.008
424.62	-0.008
424.83	-0.008
425.03	-0.008
425.23	-0.008
425.44	-0.008
425.64	-0.008
425.85	-0.008
426.05	-0.008
426.26	-0.008
426.46	-0.008
426.67	-0.008
426.87	-0.009
427.08	-0.009
427.28	-0.009
427.49	-0.009
427.69	-0.009
427.90	-0.009
428.10	-0.009
428.31	-0.009
428.51	-0.009
428.71	-0.009
428.92	-0.009
429.12	-0.009
429.33	-0.009
429.53	-0.009
429.74	-0.009
429.94	-0.008
430.15	-0.008
430.35	-0.008
430.56	-0.008
430.76	-0.008
430.96	-0.008
431.17	-0.008
431.37	-0.008
431.58	-0.008
431.78	-0.008
431.99	-0.008
432.19	-0.008
432.40	-0.008
432.60	-0.008
432.80	-0.008
433.01	-0.008
433.21	-0.008
433.42	-0.008
433.62	-0.008
433.83	-0.008
434.03	-0.008
434.23	-0.008
434.44	-0.008
434.64	-0.008
434.85	-0.008
435.05	-0.008
435.26	-0.008
435.46	-0.008
435.66	-0.008
435.87	-0.008
436.07	-0.008
436.28	-0.008
436.48	-0.008
436.69	-0.008
436.89	-0.008
437.09	-0.008
437.30	-0.008
437.50	-0.008
437.71	-0.008
437.91	-0.008
438.11	-0.008
438.32	-0.008
438.52	-0.008
438.73	-0.008
438.93	-0.008
439.13	-0.008
439.34	-0.008
439.54	-0.008
439.75	-0.008
439.95	-0.008
440.15	-0.008
440.36	-0.008
440.56	-0.008
440.77	-0.008
440.97	-0.008
441.17	-0.008
441.38	-0.008
441.58	-0.008
441.79	-0.008
441.99	-0.008
442.19	-0.008
442.40	-0.008
442.60	-0.008
442.81	-0.008
443.01	-0.008
443.21	-0.008
443.42	-0.008
443.62	-0.008
443.82	-0.008
444.03	-0.008
444.23	-0.008
444.44	-0.008
444.64	-0.008
444.84	-0.008
445.05	-0.008
445.25	-0.008
445.45	-0.008
445.66	-0.008
445.86	-0.008
446.06	-0.008
446.27	-0.008
446.47	-0.008
446.68	-0.008
446.88	-0.008
447.08	-0.008
447.29	-0.008
447.49	-0.008
447.69	-0.008
447.90	-0.008
448.10	-0.008
448.30	-0.008
448.51	-0.008
448.71	-0.008
448.91	-0.008
449.12	-0.008
449.32	-0.008
449.52	-0.008
449.73	-0.007
449.93	-0.007
450.14	-0.008
450.34	-0.008
450.54	-0.008
450.75	-0.008
450.95	-0.008
451.15	-0.008
451.36	-0.008
451.56	-0.008
451.76	-0.008
451.97	-0.008
452.17	-0.008
452.37	-0.008
452.58	-0.008
452.78	-0.008
452.98	-0.008
453.19	-0.008
453.39	-0.008
453.59	-0.008
453.79	-0.008
454.00	-0.007
454.20	-0.007
454.40	-0.007
454.61	-0.007
454.81	-0.008
455.01	-0.008
455.22	-0.008
455.42	-0.008
455.62	-0.008
455.83	-0.008
456.03	-0.008
456.23	-0.008
456.44	-0.008
456.64	-0.008
456.84	-0.007
457.04	-0.007
457.25	-0.007
457.45	-0.008
457.65	-0.008
457.86	-0.008
458.06	-0.008
458.26	-0.008
458.47	-0.008
458.67	-0.008
458.87	-0.008
459.07	-0.008
459.28	-0.008
459.48	-0.008
459.68	-0.008
459.89	-0.007
460.09	-0.007
460.29	-0.007
460.49	-0.007
460.70	-0.007
460.90	-0.007
461.10	-0.007
461.31	-0.007
461.51	-0.007
461.71	-0.007
461.91	-0.007
462.12	-0.007
462.32	-0.007
462.52	-0.007
462.72	-0.007
462.93	-0.007
463.13	-0.008
463.33	-0.008
463.53	-0.008
463.74	-0.008
463.94	-0.008
464.14	-0.008
464.35	-0.008
464.55	-0.008
464.75	-0.008
464.95	-0.008
465.16	-0.008
465.36	-0.008
465.56	-0.008
465.76	-0.008
465.97	-0.008
466.17	-0.008
466.37	-0.008
466.57	-0.008
466.78	-0.007
466.98	-0.007
467.18	-0.007
467.38	-0.007
467.59	-0.007
467.79	-0.007
467.99	-0.007
468.19	-0.007
468.39	-0.007
468.60	-0.007
468.80	-0.007
469.00	-0.007
469.20	-0.007
469.41	-0.007
469.61	-0.007
469.81	-0.007
470.01	-0.007
470.22	-0.007
470.42	-0.007
470.62	-0.007
470.82	-0.007
471.02	-0.007
471.23	-0.007
471.43	-0.008
471.63	-0.007
471.83	-0.008
472.04	-0.008
472.24	-0.008
472.44	-0.008
472.64	-0.008
472.84	-0.008
473.05	-0.008
473.25	-0.008
473.45	-0.008
473.65	-0.008
473.85	-0.008
474.06	-0.008
474.26	-0.008
474.46	-0.008
474.66	-0.007
474.86	-0.007
475.07	-0.007
475.27	-0.007
475.47	-0.007
475.67	-0.007
475.87	-0.007
476.08	-0.007
476.28	-0.007
476.48	-0.007
476.68	-0.007
476.88	-0.007
477.09	-0.007
477.29	-0.007
477.49	-0.007
477.69	-0.007
477.89	-0.007
478.09	-0.007
478.30	-0.007
478.50	-0.007
478.70	-0.008
478.90	-0.007
479.10	-0.008
479.31	-0.008
479.51	-0.008
479.71	-0.008
479.91	-0.008
480.11	-0.008
480.31	-0.008
480.52	-0.008
480.72	-0.008
480.92	-0.008
481.12	-0.008
481.32	-0.007
481.52	-0.007
481.72	-0.008
481.93	-0.007
482.13	-0.007
482.33	-0.008
482.53	-0.008
482.73	-0.008
482.93	-0.008
483.14	-0.008
483.34	-0.008
483.54	-0.008
483.74	-0.008
483.94	-0.008
484.14	-0.008
484.34	-0.008
484.55	-0.008
484.75	-0.008
484.95	-0.008
485.15	-0.008
485.35	-0.008
485.55	-0.007
485.75	-0.007
485.96	-0.007
486.16	-0.007
486.36	-0.007
486.56	-0.007
486.76	-0.007
486.96	-0.007
487.16	-0.007
487.36	-0.007
487.57	-0.007
487.77	-0.007
487.97	-0.007
488.17	-0.007
488.37	-0.007
488.57	-0.006
488.77	-0.006
488.97	-0.006
489.18	-0.006
489.38	-0.006
489.58	-0.006
489.78	-0.006
489.98	-0.006
490.18	-0.006
490.38	-0.006
490.58	-0.006
490.78	-0.006
490.98	-0.006
491.19	-0.006
491.39	-0.006
491.59	-0.006
491.79	-0.007
491.99	-0.007
492.19	-0.007
492.39	-0.007
492.59	-0.007
492.79	-0.007
492.99	-0.007
493.20	-0.007
493.40	-0.007
493.60	-0.007
493.80	-0.007
494.00	-0.007
494.20	-0.007
494.40	-0.007
494.60	-0.007
494.80	-0.007
495.00	-0.007
495.20	-0.007
495.40	-0.007
495.61	-0.007
495.81	-0.006
496.01	-0.006
496.21	-0.006
496.41	-0.006
496.61	-0.006
496.81	-0.006
497.01	-0.006
497.21	-0.006
497.41	-0.006
497.61	-0.006
497.81	-0.006
498.01	-0.006
498.21	-0.005
498.41	-0.005
498.61	-0.005
498.82	-0.005
499.02	-0.006
499.22	-0.006
499.42	-0.006
499.62	-0.006
499.82	-0.006
500.02	-0.006
500.22	-0.006
500.42	-0.006
500.62	-0.006
500.82	-0.006
501.02	-0.006
501.22	-0.006
501.42	-0.006
501.62	-0.006
501.82	-0.006
502.02	-0.006
502.22	-0.007
502.42	-0.006
502.62	-0.006
502.82	-0.006
503.02	-0.006
503.22	-0.006
503.42	-0.006
503.63	-0.006
503.83	-0.006
504.03	-0.006
504.23	-0.006
504.43	-0.006
504.63	-0.006
504.83	-0.006
505.03	-0.006
505.23	-0.005
505.43	-0.005
505.63	-0.006
505.83	-0.006
506.03	-0.006
506.23	-0.006
506.43	-0.006
506.63	-0.006
506.83	-0.006
507.03	-0.006
507.23	-0.006
507.43	-0.006
507.63	-0.006
507.83	-0.006
508.03	-0.006
508.23	-0.006
508.43	-0.006
508.63	-0.006
508.83	-0.006
509.03	-0.006
509.23	-0.006
509.43	-0.006
509.63	-0.006
509.83	-0.006
510.03	-0.005
510.23	-0.005
510.43	-0.006
510.63	-0.005
510.83	-0.005
511.03	-0.006
511.23	-0.006
511.43	-0.006
511.63	-0.006
511.83	-0.005
512.03	-0.006
512.22	-0.006
512.42	-0.006
512.62	-0.005
512.82	-0.005
513.02	-0.005
513.22	-0.005
513.42	-0.005
513.62	-0.005
513.82	-0.005
514.02	-0.005
514.22	-0.005
514.42	-0.005
514.62	-0.005
514.82	-0.005
515.02	-0.005
515.22	-0.005
515.42	-0.005
515.62	-0.005
515.82	-0.005
516.02	-0.005
516.22	-0.005
516.42	-0.005
516.62	-0.005
516.82	-0.005
517.01	-0.005
517.21	-0.005
517.41	-0.005
517.61	-0.005
517.81	-0.005
518.01	-0.005
518.21	-0.005
518.41	-0.005
518.61	-0.005
518.81	-0.005
519.01	-0.005
519.21	-0.005
519.41	-0.005
519.61	-0.005
519.81	-0.005
520.00	-0.005
520.20	-0.005
520.40	-0.005
520.60	-0.005
520.80	-0.005
521.00	-0.005
521.20	-0.005
521.40	-0.005
521.60	-0.005
521.80	-0.005
522.00	-0.005
522.20	-0.005
522.39	-0.005
522.59	-0.005
522.79	-0.005
522.99	-0.005
523.19	-0.005
523.39	-0.005
523.59	-0.005
523.79	-0.005
523.99	-0.005
524.19	-0.005
524.38	-0.005
524.58	-0.005
524.78	-0.005
524.98	-0.005
525.18	-0.005
525.38	-0.005
525.58	-0.005
525.78	-0.005
525.98	-0.005
526.18	-0.005
526.37	-0.005
526.57	-0.005
526.77	-0.005
526.97	-0.005
527.17	-0.005
527.37	-0.005
527.57	-0.005
527.77	-0.005
527.96	-0.005
528.16	-0.005
528.36	-0.005
528.56	-0.005
528.76	-0.005
528.96	-0.005
529.16	-0.005
529.36	-0.005
529.55	-0.005
529.75	-0.005
529.95	-0.005
530.15	-0.005
530.35	-0.005
530.55	-0.005
530.75	-0.005
530.94	-0.005
531.14	-0.005
531.34	-0.005
531.54	-0.005
531.74	-0.005
531.94	-0.005
532.13	-0.005
532.33	-0.005
532.53	-0.005
532.73	-0.005
532.93	-0.005
533.13	-0.005
533.33	-0.005
533.52	-0.005
533.72	-0.005
533.92	-0.005
534.12	-0.005
534.32	-0.005
534.52	-0.005
534.71	-0.005
534.91	-0.005
535.11	-0.005
535.31	-0.005
535.51	-0.005
535.71	-0.005
535.90	-0.005
536.10	-0.005
536.30	-0.005
536.50	-0.005
536.70	-0.005
536.89	-0.005
537.09	-0.005
537.29	-0.005
537.49	-0.005
537.69	-0.005
537.89	-0.005
538.08	-0.005
538.28	-0.005
538.48	-0.005
538.68	-0.005
538.88	-0.005
539.07	-0.005
539.27	-0.005
539.47	-0.005
539.67	-0.005
539.87	-0.004
540.06	-0.004
540.26	-0.004
540.46	-0.004
540.66	-0.004
540.86	-0.004
541.05	-0.004
541.25	-0.004
541.45	-0.004
541.65	-0.004
541.84	-0.004
542.04	-0.004
542.24	-0.004
542.44	-0.005
542.64	-0.005
542.83	-0.005
543.03	-0.005
543.23	-0.005
543.43	-0.005
543.62	-0.005
543.82	-0.005
544.02	-0.005
544.22	-0.005
544.42	-0.005
544.61	-0.004
544.81	-0.004
545.01	-0.004
545.21	-0.004
545.40	-0.004
545.60	-0.004
545.80	-0.004
546.00	-0.004
546.19	-0.004
546.39	-0.004
546.59	-0.004
546.79	-0.004
546.98	-0.004
547.18	-0.004
547.38	-0.004
547.58	-0.004
547.77	-0.004
547.97	-0.004
548.17	-0.004
548.37	-0.004
548.56	-0.004
548.76	-0.004
548.96	-0.004
549.16	-0.004
549.35	-0.004
549.55	-0.004
549.75	-0.004
549.95	-0.004
550.14	-0.004
550.34	-0.004
550.54	-0.004
550.73	-0.004
550.93	-0.004
551.13	-0.004
551.33	-0.004
551.52	-0.004
551.72	-0.004
551.92	-0.004
552.12	-0.004
552.31	-0.004
552.51	-0.004
552.71	-0.004
552.90	-0.004
553.10	-0.004
553.30	-0.004
553.50	-0.004
553.69	-0.004
553.89	-0.004
554.09	-0.004
554.28	-0.004
554.48	-0.004
554.68	-0.004
554.87	-0.004
555.07	-0.004
555.27	-0.004
555.47	-0.004
555.66	-0.004
555.86	-0.003
556.06	-0.003
556.25	-0.003
556.45	-0.003
556.65	-0.003
556.84	-0.003
557.04	-0.003
557.24	-0.003
557.43	-0.003
557.63	-0.003
557.83	-0.003
558.02	-0.004
558.22	-0.004
558.42	-0.004
558.61	-0.004
558.81	-0.004
559.01	-0.004
559.21	-0.004
559.40	-0.004
559.60	-0.004
559.80	-0.004
559.99	-0.004
560.19	-0.004
560.39	-0.004
560.58	-0.004
560.78	-0.004
560.97	-0.004
561.17	-0.004
561.37	-0.004
561.56	-0.004
561.76	-0.004
561.96	-0.004
562.15	-0.004
562.35	-0.003
562.55	-0.003
562.74	-0.003
562.94	-0.003
563.14	-0.003
563.33	-0.003
563.53	-0.003
563.73	-0.003
563.92	-0.003
564.12	-0.003
564.31	-0.004
564.51	-0.004
564.71	-0.004
564.90	-0.003
565.10	-0.004
565.30	-0.004
565.49	-0.004
565.69	-0.004
565.89	-0.004
566.08	-0.004
566.28	-0.004
566.47	-0.004
566.67	-0.004
566.87	-0.004
567.06	-0.004
567.26	-0.004
567.46	-0.004
567.65	-0.005
567.85	-0.005
568.04	-0.005
568.24	-0.005
568.44	-0.005
568.63	-0.005
568.83	-0.005
569.02	-0.005
569.22	-0.005
569.42	-0.005
569.61	-0.005
569.81	-0.005
570.00	-0.005
570.20	-0.005
570.40	-0.005
570.59	-0.005
570.79	-0.005
570.98	-0.005
571.18	-0.005
571.38	-0.005
571.57	-0.005
571.77	-0.005
571.96	-0.005
572.16	-0.005
572.35	-0.005
572.55	-0.005
572.75	-0.005
572.94	-0.005
573.14	-0.005
573.33	-0.005
573.53	-0.005
573.73	-0.005
573.92	-0.005
574.12	-0.004
574.31	-0.004
574.51	-0.004
574.70	-0.004
574.90	-0.003
575.09	-0.003
575.29	-0.002
575.49	-0.002
575.68	-0.002
575.88	-0.001
576.07	-0.001
576.27	-0.000
576.46	-0.000
576.66	-0.000
576.86	-0.000
577.05	-0.000
577.25	-0.000
577.44	-0.000
577.64	-0.000
577.83	-0.000
578.03	-0.000
578.22	-0.000
578.42	-0.000
578.61	-0.000
578.81	-0.000
579.00	-0.000
579.20	-0.000
579.40	-0.000
579.59	-0.000
579.79	-0.000
579.98	-0.000
580.18	-0.000
580.37	-0.000
580.57	-0.000
580.76	-0.000
580.96	-0.000
581.15	-0.000
581.35	-0.000
581.54	-0.000
581.74	-0.000
581.93	-0.000
582.13	-0.000
582.32	-0.000
582.52	-0.000
582.71	-0.000
582.91	-0.000
583.10	-0.000
583.30	-0.000
583.49	-0.000
583.69	-0.000
583.88	-0.000
584.08	-0.000
584.27	-0.000
584.47	-0.000
584.66	-0.000
584.86	-0.000
585.05	-0.000
585.25	-0.000
585.44	-0.000
585.64	-0.000
585.83	-0.000
586.03	-0.000
586.22	-0.000
586.42	-0.000
586.61	-0.000
586.81	-0.001
587.00	-0.001
587.20	-0.001
587.39	-0.001
587.59	-0.002
587.78	-0.002
587.98	-0.002
588.17	-0.002
588.37	-0.002
588.56	-0.003
588.76	-0.003
588.95	-0.003
589.15	-0.003
589.34	-0.003
589.54	-0.003
589.73	-0.003
589.92	-0.003
590.12	-0.003
590.31	-0.004
590.51	-0.004
590.70	-0.004
590.90	-0.004
591.09	-0.004
591.29	-0.004
591.48	-0.004
591.68	-0.004
591.87	-0.004
592.06	-0.004
592.26	-0.004
592.45	-0.004
592.65	-0.004
592.84	-0.004
593.04	-0.004
593.23	-0.004
593.43	-0.004
593.62	-0.003
593.81	-0.003
594.01	-0.003
594.20	-0.003
594.40	-0.003
594.59	-0.003
594.79	-0.002
594.98	-0.002
595.17	-0.002
595.37	-0.002
595.56	-0.003
595.76	-0.003
595.95	-0.003
596.14	-0.003
596.34	-0.003
596.53	-0.004
596.73	-0.004
596.92	-0.004
597.12	-0.005
597.31	-0.005
597.50	-0.005
597.70	-0.005
597.89	-0.005
598.09	-0.005
598.28	-0.005
598.47	-0.004
598.67	-0.004
598.86	-0.004
599.06	-0.004
599.25	-0.004
599.44	-0.004
599.64	-0.004
599.83	-0.003
600.03	-0.003
600.22	-0.003
600.41	-0.003
600.61	-0.003
600.80	-0.003
601.00	-0.002
601.19	-0.002
601.38	-0.002
601.58	-0.002
601.77	-0.002
601.96	-0.002
602.16	-0.002
602.35	-0.002
602.55	-0.002
602.74	-0.003
602.93	-0.003
603.13	-0.003
603.32	-0.004
603.51	-0.004
603.71	-0.004
603.90	-0.004
604.09	-0.004
604.29	-0.005
604.48	-0.005
604.68	-0.004
604.87	-0.004
605.06	-0.004
605.26	-0.004
605.45	-0.004
605.64	-0.004
605.84	-0.004
606.03	-0.003
606.22	-0.003
606.42	-0.003
606.61	-0.003
606.80	-0.003
607.00	-0.003
607.19	-0.003
607.38	-0.003
607.58	-0.003
607.77	-0.003
607.96	-0.002
608.16	-0.002
608.35	-0.002
608.54	-0.002
608.74	-0.002
608.93	-0.002
609.12	-0.002
609.32	-0.002
609.51	-0.002
609.70	-0.002
609.90	-0.002
610.09	-0.002
610.28	-0.002
610.48	-0.002
610.67	-0.002
610.86	-0.002
611.06	-0.002
611.25	-0.002
611.44	-0.003
611.64	-0.003
611.83	-0.003
612.02	-0.003
612.21	-0.003
612.41	-0.003
612.60	-0.003
612.79	-0.003
612.99	-0.003
613.18	-0.003
613.37	-0.003
613.57	-0.003
613.76	-0.003
613.95	-0.003
614.14	-0.003
614.34	-0.003
614.53	-0.003
614.72	-0.003
614.92	-0.003
615.11	-0.002
615.30	-0.002
615.49	-0.002
615.69	-0.002
615.88	-0.002
616.07	-0.002
616.26	-0.002
616.46	-0.002
616.65	-0.002
616.84	-0.001
617.04	-0.001
617.23	-0.001
617.42	-0.001
617.61	-0.001
617.81	-0.001
618.00	-0.001
618.19	-0.002
618.38	-0.002
618.58	-0.002
618.77	-0.002
618.96	-0.002
619.15	-0.002
619.35	-0.002
619.54	-0.002
619.73	-0.002
619.92	-0.002
620.12	-0.002
620.31	-0.002
620.50	-0.002
620.69	-0.002
620.89	-0.002
621.08	-0.002
621.27	-0.002
621.46	-0.002
621.66	-0.002
621.85	-0.002
622.04	-0.002
622.23	-0.002
622.43	-0.002
622.62	-0.002
622.81	-0.002
623.00	-0.002
623.19	-0.002
623.39	-0.002
623.58	-0.002
623.77	-0.002
623.96	-0.002
624.16	-0.002
624.35	-0.002
624.54	-0.002
624.73	-0.001
624.92	-0.001
625.12	-0.001
625.31	-0.001
625.50	-0.001
625.69	-0.001
625.88	-0.001
626.08	-0.001
626.27	-0.001
626.46	-0.001
626.65	-0.001
626.84	-0.001
627.04	-0.001
627.23	-0.001
627.42	-0.001
627.61	-0.001
627.80	-0.001
628.00	-0.001
628.19	-0.001
628.38	-0.001
628.57	-0.000
628.76	-0.000
628.96	-0.000
629.15	-0.000
629.34	-0.000
629.53	-0.000
629.72	-0.000
629.91	-0.000
630.11	-0.000
630.30	-0.000
630.49	-0.000
630.68	-0.000
630.87	-0.000
631.06	0.000
631.26	0.000
631.45	0.000
631.64	0.000
631.83	0.000
632.02	0.000
632.21	0.000
632.41	0.000
632.60	0.000
632.79	0.000
632.98	-0.000
633.17	-0.000
633.36	-0.000
633.55	-0.001
633.75	-0.000
633.94	-0.000
634.13	-0.000
634.32	-0.001
634.51	-0.001
634.70	-0.001
634.89	-0.000
635.09	-0.000
635.28	-0.000
635.47	0.000
635.66	0.000
635.85	0.000
636.04	0.000
636.23	0.000
636.43	0.000
636.62	0.000
636.81	0.000
637.00	0.000
637.19	0.000
637.38	0.000
637.57	0.000
637.76	0.000
637.95	0.000
638.15	0.000
638.34	0.000
638.53	0.001
638.72	0.001
638.91	0.001
639.10	0.001
639.29	0.001
639.48	0.001
639.67	0.001
639.87	0.000
640.06	0.000
640.25	0.000
640.44	0.000
640.63	0.000
640.82	-0.000
641.01	0.000
641.20	-0.000
641.39	0.000
641.58	0.000
641.78	0.000
641.97	0.000
642.16	0.000
642.35	0.001
642.54	0.001
642.73	0.001
642.92	0.001
643.11	0.001
643.30	0.001
643.49	0.001
643.68	0.001
643.87	0.001
644.06	0.001
644.25	0.001
644.45	0.001
644.64	0.001
644.83	0.001
645.02	0.001
645.21	0.001
645.40	0.001
645.59	0.001
645.78	0.001
645.97	0.000
646.16	0.000
646.35	0.000
646.54	0.000
646.73	-0.000
646.92	-0.000
647.11	-0.000
647.30	-0.000
647.49	-0.000
647.68	-0.000
647.88	-0.000
648.07	-0.000
648.26	-0.000
648.45	-0.000
648.64	-0.001
648.83	-0.001
649.02	-0.001
649.21	-0.000
649.40	-0.000
649.59	0.000
649.78	0.000
649.97	0.000
650.16	0.000
650.35	0.000
650.54	0.000
650.73	0.001
650.92	0.001
651.11	0.001
651.30	0.001
651.49	0.001
651.68	0.001
651.87	0.001
652.06	0.001
652.25	0.001
652.44	0.000
652.63	-0.000
652.82	-0.002
653.01	-0.003
653.20	-0.003
653.39	-0.003
653.58	-0.004
653.77	-0.004
653.96	-0.004
654.15	-0.004
654.34	-0.005
654.53	-0.004
654.72	-0.004
654.91	-0.003
655.10	-0.003
655.29	-0.003
655.48	-0.002
655.67	-0.002
655.86	-0.002
656.05	-0.002
656.24	-0.002
656.43	-0.002
656.62	-0.002
656.81	-0.001
657.00	-0.001
657.19	0.000
657.38	0.001
657.57	0.001
657.76	0.002
657.95	0.002
658.14	0.003
658.33	0.003
658.51	0.003
658.70	0.004
658.89	0.004
659.08	0.003
659.27	0.002
659.46	0.002
659.65	0.002
659.84	0.002
660.03	0.001
660.22	0.001
660.41	0.001
660.60	0.001
660.79	0.001
660.98	0.001
661.17	0.001
661.36	0.001
661.55	0.001
661.74	0.001
661.92	0.001
662.11	0.001
662.30	0.001
662.49	0.001
662.68	0.001
662.87	0.001
663.06	0.001
663.25	0.001
663.44	0.001
663.63	0.001
663.82	0.001
664.01	0.001
664.20	0.001
664.38	0.001
664.57	0.001
664.76	0.001
664.95	0.001
665.14	0.001
665.33	0.001
665.52	0.001
665.71	0.001
665.90	0.001
666.09	0.001
666.28	0.001
666.46	0.001
666.65	0.001
666.84	0.001
667.03	0.001
667.22	0.001
667.41	0.001
667.60	0.001
667.79	0.001
667.98	0.001
668.16	0.001
668.35	0.001
668.54	0.001
668.73	0.001
668.92	0.000
669.11	0.000
669.30	0.000
669.49	0.000
669.67	0.000
669.86	0.000
670.05	0.000
670.24	0.000
670.43	0.000
670.62	0.000
670.81	0.000
671.00	0.000
671.18	0.000
671.37	0.000
671.56	0.000
671.75	0.000
671.94	0.000
672.13	0.000
672.32	0.000
672.50	0.000
672.69	0.000
672.88	0.000
673.07	0.001
673.26	0.001
673.45	0.001
673.63	0.001
673.82	0.001
674.01	0.001
674.20	0.001
674.39	0.001
674.58	0.001
674.76	0.001
674.95	0.001
675.14	0.001
675.33	0.001
675.52	0.001
675.71	0.001
675.89	0.001
676.08	0.001
676.27	0.001
676.46	0.001
676.65	0.001
676.84	0.001
677.02	0.001
677.21	0.001
677.40	0.001
677.59	0.001
677.78	0.001
677.96	0.002
678.15	0.001
678.34	0.001
678.53	0.001
678.72	0.001
678.90	0.001
679.09	0.001
679.28	0.001
679.47	0.001
679.66	0.001
679.84	0.001
680.03	0.001
680.22	0.001
680.41	0.001
680.60	0.001
680.78	0.001
680.97	0.001
681.16	0.001
681.35	0.001
681.53	0.001
681.72	0.001
681.91	0.001
682.10	0.000
682.29	0.000
682.47	0.000
682.66	0.000
682.85	0.000
683.04	0.000
683.22	0.000
683.41	0.000
683.60	0.000
683.79	0.000
683.97	0.000
684.16	0.000
684.35	0.000
684.54	0.000
684.72	0.000
684.91	0.000
685.10	0.001
685.29	0.000
685.47	0.001
685.66	0.001
685.85	0.001
686.04	0.001
686.22	0.001
686.41	0.001
686.60	0.001
686.79	0.001
686.97	0.001
687.16	0.001
687.35	0.001
687.54	0.001
687.72	0.001
687.91	0.001
688.10	0.001
688.29	0.001
688.47	0.001
688.66	0.001
688.85	0.001
689.03	0.001
689.22	0.001
689.41	0.001
689.60	0.001
689.78	0.001
689.97	0.001
690.16	0.001
690.34	0.001
690.53	0.001
690.72	0.001
690.91	0.001
691.09	0.001
691.28	0.001
691.47	0.001
691.65	0.001
691.84	0.001
692.03	0.001
692.21	0.001
692.40	0.001
692.59	0.001
692.77	0.001
692.96	0.001
693.15	0.001
693.34	0.001
693.52	0.001
693.71	0.001
693.90	0.001
694.08	0.001
694.27	0.001
694.46	0.001
694.64	0.001
694.83	0.001
695.02	0.001
695.20	0.001
695.39	0.001
695.58	0.001
695.76	0.001
695.95	0.001
696.14	0.001
696.32	0.001
696.51	0.001
696.70	0.001
696.88	0.001
697.07	0.001
697.26	0.001
697.44	0.001
697.63	0.001
697.81	0.001
698.00	0.001
698.19	0.001
698.37	0.001
698.56	0.001
698.75	0.002
698.93	0.002
699.12	0.002
699.31	0.002
699.49	0.002
699.68	0.002
699.87	0.002
700.05	0.002
700.24	0.002
700.42	0.002
700.61	0.002
700.80	0.002
700.98	0.001
701.17	0.001
701.36	0.001
701.54	0.001
701.73	0.001
701.91	0.002
702.10	0.002
702.29	0.002
702.47	0.002
702.66	0.002
702.84	0.002
703.03	0.002
703.22	0.002
703.40	0.002
703.59	0.002
703.77	0.002
703.96	0.002
704.15	0.002
704.33	0.002
704.52	0.002
704.70	0.002
704.89	0.002
705.08	0.001
705.26	0.001
705.45	0.001
705.63	0.001
705.82	0.001
706.00	0.001
706.19	0.001
706.38	0.001
706.56	0.001
706.75	0.001
706.93	0.001
707.12	0.001
707.30	0.001
707.49	0.001
707.68	0.001
707.86	0.001
708.05	0.001
708.23	0.001
708.42	0.001
708.60	0.001
708.79	0.001
708.98	0.001
709.16	0.001
709.35	0.001
709.53	0.001
709.72	0.002
709.90	0.002
710.09	0.002
710.27	0.002
710.46	0.002
710.64	0.002
710.83	0.002
711.02	0.002
711.20	0.002
711.39	0.002
711.57	0.002
711.76	0.001
711.94	0.002
712.13	0.001
712.31	0.001
712.50	0.001
712.68	0.001
712.87	0.001
713.05	0.001
713.24	0.001
713.42	0.001
713.61	0.001
713.79	0.001
713.98	0.001
714.16	0.001
714.35	0.001
714.54	0.001
714.72	0.001
714.91	0.001
715.09	0.001
715.28	0.001
715.46	0.001
715.65	0.001
715.83	0.001
716.02	0.001
716.20	0.001
716.39	0.001
716.57	0.001
716.76	0.001
716.94	0.001
717.12	0.001
717.31	0.001
717.49	0.001
717.68	0.001
717.86	0.001
718.05	0.001
718.23	0.001
718.42	0.001
718.60	0.001
718.79	0.000
718.97	0.001
719.16	0.001
719.34	0.001
719.53	0.001
719.71	0.001
719.90	0.001
720.08	0.001
720.27	0.001
720.45	0.001
720.63	0.001
720.82	0.001
721.00	0.001
721.19	0.001
721.37	0.001
721.56	0.001
721.74	0.001
721.93	0.001
722.11	0.001
722.30	0.001
722.48	0.001
722.66	0.001
722.85	0.001
723.03	0.001
723.22	0.001
723.40	0.001
723.59	0.001
723.77	0.001
723.95	0.001
724.14	0.001
724.32	0.001
724.51	0.001
724.69	0.001
724.88	0.001
725.06	0.001
725.24	0.001
725.43	0.001
725.61	0.000
725.80	0.000
725.98	0.000
726.16	-0.000
726.35	-0.000
726.53	0.000
726.72	0.000
726.90	0.000
727.09	0.000
727.27	0.000
727.45	0.000
727.64	0.001
727.82	0.001
728.01	0.001
728.19	0.001
728.37	0.001
728.56	0.001
728.74	0.001
728.92	0.001
729.11	0.001
729.29	0.001
729.48	0.001
729.66	0.001
729.84	0.001
730.03	0.001
730.21	0.000
730.40	0.001
730.58	0.000
730.76	0.000
730.95	0.000
731.13	0.000
731.31	0.000
731.50	-0.000
731.68	0.000
731.86	0.000
732.05	0.001
732.23	0.001
732.42	0.001
732.60	0.001
732.78	0.001
732.97	0.000
733.15	-0.000
733.33	-0.000
733.52	-0.001
733.70	-0.001
733.88	-0.001
734.07	-0.002
734.25	-0.002
734.43	-0.002
734.62	-0.002
734.80	-0.002
734.98	-0.002
735.17	-0.003
735.35	-0.003
735.53	-0.002
735.72	-0.002
735.90	-0.002
736.08	-0.002
736.27	-0.002
736.45	-0.003
736.63	-0.002
736.82	-0.002
737.00	-0.002
737.18	-0.002
737.37	-0.002
737.55	-0.002
737.73	-0.002
737.92	-0.002
738.10	-0.002
738.28	-0.002
738.46	-0.002
738.65	-0.003
738.83	-0.003
739.01	-0.002
739.20	-0.002
739.38	-0.003
739.56	-0.002
739.75	-0.002
739.93	-0.002
740.11	-0.001
740.29	-0.001
740.48	-0.001
740.66	-0.000
740.84	-0.000
741.03	-0.001
741.21	-0.000
741.39	0.000
741.57	-0.000
741.76	-0.001
741.94	-0.002
742.12	-0.002
742.31	-0.002
742.49	-0.002
742.67	-0.002
742.85	-0.002
743.04	-0.003
743.22	-0.003
743.40	-0.002
743.58	-0.002
743.77	-0.001
743.95	-0.001
744.13	-0.001
744.31	-0.001
744.50	-0.000
744.68	-0.000
744.86	0.000
745.04	0.000
745.23	-0.000
745.41	-0.001
745.59	-0.001
745.77	-0.001
745.96	-0.001
746.14	-0.001
746.32	-0.001
746.50	-0.001
746.69	-0.001
746.87	-0.001
747.05	-0.001
747.23	-0.001
747.42	-0.001
747.60	-0.001
747.78	-0.001
747.96	-0.001
748.14	-0.000
748.33	-0.000
748.51	0.000
748.69	-0.000
748.87	-0.000
749.06	-0.000
749.24	0.000
749.42	0.000
749.60	0.000
749.78	-0.000
749.97	-0.000
750.15	-0.001
750.33	-0.001
750.51	-0.001
750.69	-0.001
750.88	-0.001
751.06	-0.001
751.24	-0.001
751.42	-0.001
751.60	-0.002
751.79	-0.001
751.97	-0.002
752.15	-0.002
752.33	-0.002
752.51	-0.002
752.69	-0.002
752.88	-0.002
753.06	-0.002
753.24	-0.002
753.42	-0.002
753.60	-0.001
753.78	-0.001
753.97	-0.001
754.15	-0.000
754.33	-0.000
754.51	-0.001
754.69	-0.001
754.87	-0.001
755.06	-0.001
755.24	-0.001
755.42	-0.001
755.60	-0.001
755.78	-0.001
755.96	-0.001
756.15	-0.001
756.33	-0.001
756.51	-0.001
756.69	-0.001
756.87	-0.000
757.05	-0.001
757.23	-0.001
757.42	-0.001
757.60	-0.001
757.78	-0.001
757.96	-0.001
758.14	-0.001
758.32	-0.001
758.50	-0.000
758.69	-0.000
758.87	-0.001
759.05	-0.000
759.23	-0.000
759.41	0.000
759.59	0.001
759.77	0.001
759.95	0.001
760.13	0.001
760.32	0.001
760.50	0.001
760.68	0.001
760.86	0.001
761.04	0.001
761.22	0.001
761.40	0.001
761.58	0.000
761.76	-0.000
761.95	-0.000
762.13	0.000
762.31	0.000
762.49	0.001
762.67	0.000
762.85	0.001
763.03	0.001
763.21	0.001
763.39	0.001
763.57	0.002
763.75	0.002
763.94	0.001
764.12	0.000
764.30	0.001
764.48	0.000
764.66	0.000
764.84	-0.000
765.02	-0.001
765.20	-0.001
765.38	-0.001
765.56	-0.001
765.74	-0.001
765.92	-0.001
766.10	-0.000
766.28	-0.000
766.46	0.000
766.65	0.000
766.83	0.000
767.01	0.001
767.19	0.002
767.37	0.002
767.55	0.002
767.73	0.003
767.91	0.003
768.09	0.003
768.27	0.003
768.45	0.003
768.63	0.003
768.81	0.003
768.99	0.003
769.17	0.003
769.35	0.002
769.53	0.002
769.71	0.002
769.89	0.002
770.07	0.002
770.25	0.002
770.43	0.002
770.61	0.002
770.79	0.002
770.97	0.002
771.15	0.002
771.33	0.002
771.51	0.002
771.69	0.002
771.87	0.002
772.05	0.002
772.24	0.002
772.42	0.002
772.60	0.002
772.78	0.002
772.96	0.003
773.14	0.003
773.32	0.002
773.49	0.002
773.67	0.002
773.85	0.002
774.03	0.002
774.21	0.002
774.39	0.002
774.57	0.002
774.75	0.002
774.93	0.001
775.11	0.002
775.29	0.002
775.47	0.001
775.65	0.001
775.83	0.001
776.01	0.001
776.19	0.002
776.37	0.002
776.55	0.002
776.73	0.002
776.91	0.002
777.09	0.001
777.27	0.001
777.45	0.002
777.63	0.003
777.81	0.003
777.99	0.003
778.17	0.003
778.35	0.003
778.53	0.003
778.71	0.003
778.89	0.003
779.07	0.003
779.24	0.003
779.42	0.002
779.60	0.002
779.78	0.002
779.96	0.001
780.14	0.001
780.32	0.001
780.50	0.001
780.68	0.001
780.86	0.001
781.04	0.001
781.22	0.001
781.40	0.002
781.58	0.002
781.75	0.002
781.93	0.003
782.11	0.003
782.29	0.004
782.47	0.004
782.65	0.005
782.83	0.005
783.01	0.004
783.19	0.004
783.37	0.004
783.55	0.003
783.72	0.003
783.90	0.003
784.08	0.003
784.26	0.003
784.44	0.002
784.62	0.002
784.80	0.002
784.98	0.002
785.16	0.002
785.33	0.002
785.51	0.002
785.69	0.002
785.87	0.002
786.05	0.002
786.23	0.002
786.41	0.001
786.59	0.001
786.77	0.002
786.94	0.002
787.12	0.002
787.30	0.002
787.48	0.002
787.66	0.002
787.84	0.003
788.02	0.003
788.19	0.003
788.37	0.003
788.55	0.003
788.73	0.003
788.91	0.003
789.09	0.003
789.27	0.004
789.44	0.004
789.62	0.004
789.80	0.004
789.98	0.003
790.16	0.003
790.34	0.003
790.51	0.003
790.69	0.003
790.87	0.003
791.05	0.003
791.23	0.003
791.41	0.003
791.58	0.003
791.76	0.002
791.94	0.003
792.12	0.003
792.30	0.004
792.48	0.003
792.65	0.003
792.83	0.003
793.01	0.003
793.19	0.003
793.37	0.003
793.54	0.003
793.72	0.003
793.90	0.003
794.08	0.003
794.26	0.003
794.43	0.003
794.61	0.004
794.79	0.004
794.97	0.004
795.15	0.004
795.32	0.004
795.50	0.004
795.68	0.005
795.86	0.005
796.04	0.005
796.21	0.005
796.39	0.004
796.57	0.004
796.75	0.004
796.92	0.004
797.10	0.004
797.28	0.004
797.46	0.004
797.64	0.003
797.81	0.004
797.99	0.004
798.17	0.004
798.35	0.004
798.52	0.004
798.70	0.004
798.88	0.004
799.06	0.004
799.23	0.004
799.41	0.004
799.59	0.004
799.77	0.004
799.94	0.004
800.12	0.004
800.30	0.003
800.48	0.003
800.65	0.004
800.83	0.003
801.01	0.004
801.19	0.004
801.36	0.004
801.54	0.003
801.72	0.003
801.90	0.003
802.07	0.003
802.25	0.003
802.43	0.004
802.60	0.004
802.78	0.004
802.96	0.004
803.14	0.004
803.31	0.003
803.49	0.004
803.67	0.004
803.84	0.004
804.02	0.004
804.20	0.004
804.38	0.003
804.55	0.003
804.73	0.003
804.91	0.003
805.08	0.003
805.26	0.003
805.44	0.003
805.61	0.003
805.79	0.003
805.97	0.003
806.15	0.003
806.32	0.004
806.50	0.004
806.68	0.004
806.85	0.004
807.03	0.004
807.21	0.004
807.38	0.004
807.56	0.004
807.74	0.004
807.91	0.004
808.09	0.003
808.27	0.003
808.44	0.004
808.62	0.004
808.80	0.004
808.97	0.004
809.15	0.004
809.33	0.004
809.50	0.004
809.68	0.004
809.86	0.004
810.03	0.004
810.21	0.004
810.39	0.004
810.56	0.004
810.74	0.004
810.91	0.003
811.09	0.003
811.27	0.003
811.44	0.003
811.62	0.002
811.80	0.002
811.97	0.002
812.15	0.003
812.33	0.003
812.50	0.003
812.68	0.003
812.85	0.003
813.03	0.003
813.21	0.004
813.38	0.004
813.56	0.005
813.74	0.005
813.91	0.004
814.09	0.004
814.26	0.005
814.44	0.004
814.62	0.004
814.79	0.003
814.97	0.003
815.14	0.003
815.32	0.003
815.50	0.003
815.67	0.003
815.85	0.003
816.02	0.003
816.20	0.003
816.38	0.004
816.55	0.004
816.73	0.004
816.90	0.004
817.08	0.004
817.26	0.003
817.43	0.003
817.61	0.003
817.78	0.003
817.96	0.003
818.13	0.003
818.31	0.003
818.49	0.003
818.66	0.003
818.84	0.003
819.01	0.002
819.19	0.003
819.36	0.003
819.54	0.003
819.71	0.003
819.89	0.003
820.07	0.003
820.24	0.003
820.42	0.003
820.59	0.003
820.77	0.003
820.94	0.003
821.12	0.003
821.29	0.003
821.47	0.003
821.64	0.003
821.82	0.004
822.00	0.004
822.17	0.004
822.35	0.004
822.52	0.004
822.70	0.004
822.87	0.004
823.05	0.003
823.22	0.004
823.40	0.003
823.57	0.003
823.75	0.003
823.92	0.002
824.10	0.002
824.27	0.003
824.45	0.003
824.62	0.003
824.80	0.003
824.97	0.004
825.15	0.004
825.32	0.004
825.50	0.004
825.67	0.004
825.85	0.004
826.02	0.005
826.20	0.005
826.37	0.005
826.55	0.005
826.72	0.005
826.90	0.004
827.07	0.005
827.25	0.005
827.42	0.005
827.60	0.005
827.77	0.005
827.95	0.004
828.12	0.005
828.30	0.005
828.47	0.003
828.65	0.003
828.82	0.003
829.00	0.003
829.17	0.004
829.34	0.004
829.52	0.005
829.69	0.005
829.87	0.005
830.04	0.004
830.22	0.004
830.39	0.004
830.57	0.005
830.74	0.005
830.92	0.004
831.09	0.004
831.26	0.004
831.44	0.005
831.61	0.005
831.79	0.007
831.96	0.006
832.14	0.007
832.31	0.006
832.49	0.006
832.66	0.005
832.83	0.006
833.01	0.005
833.18	0.005
833.36	0.003
833.53	0.003
833.70	0.002
833.88	0.002
834.05	0.002
834.23	0.002
834.40	0.003
834.58	0.002
834.75	0.002
834.92	0.001
835.10	0.000
835.27	-0.001
835.45	-0.002
835.62	-0.003
835.79	-0.002
835.97	-0.002
836.14	-0.001
836.32	-0.002
836.49	-0.002
836.66	-0.001
836.84	0.000
837.01	-0.000
837.18	0.001
837.36	0.001
837.53	0.003
837.71	0.001
837.88	0.002
838.05	-0.001
838.23	0.000
838.40	-0.001
838.58	-0.001
838.75	-0.002
838.92	-0.001
839.10	-0.003
839.27	-0.001
839.44	-0.002
839.62	-0.001
839.79	-0.001
839.96	0.003
840.14	0.004
840.31	0.004
840.48	0.004
840.66	0.008
840.83	0.006
841.01	0.006
841.18	0.004
841.35	0.004
841.53	0.003
841.70	0.002
841.87	0.000
842.05	-0.002
842.22	-0.001
842.39	-0.003
842.57	-0.006
842.74	-0.004
842.91	-0.002
843.09	-0.000
843.26	0.002
843.43	0.005
843.60	0.003
843.78	0.004
843.95	0.008
844.12	0.007
844.30	0.009
844.47	0.009
844.64	0.011
844.82	0.009
844.99	0.008
845.16	0.006
845.34	0.003
845.51	0.007
845.68	0.006
845.85	0.003
846.03	0.003
846.20	0.005
846.37	0.005
846.55	0.004
846.72	0.005
846.89	0.005
847.06	0.004
847.24	0.005
847.41	0.001
847.58	0.001
847.76	0.003
847.93	0.003
848.10	0.000
848.27	0.000
848.45	0.003
848.62	0.003
848.79	-0.001
848.97	0.000
849.14	0.001
849.31	0.004
849.48	0.004
849.66	0.001
849.83	0.002
850.00	0.001
850.17	0.000
850.35	-0.005
850.52	-0.005
850.69	-0.002
850.86	-0.001
851.04	-0.002
851.21	-0.001
851.38	-0.003
851.55	-0.004
851.72	-0.003
851.90	0.001
852.07	0.004
852.24	0.006
852.41	0.005
852.59	0.005
852.76	0.006
852.93	0.007
853.10	0.007
853.28	0.009
853.45	0.009
853.62	0.009
853.79	0.008
853.96	0.005
854.14	0.006
854.31	0.005
854.48	0.004
854.65	0.003
854.82	0.002
855.00	0.003
855.17	0.003
855.34	0.005
855.51	0.004
855.68	0.003
855.86	0.004
856.03	0.004
856.20	0.004
856.37	0.001
856.54	0.001
856.72	0.000
856.89	-0.004
857.06	-0.006
857.23	-0.007
857.40	-0.005
857.57	-0.004
857.75	-0.002
857.92	0.001
858.09	0.003
858.26	0.006
858.43	0.005
858.60	0.005
858.78	0.010
858.95	0.013
859.12	0.014
859.29	0.010
859.46	0.011
859.63	0.009
859.81	0.009
859.98	0.009
860.15	0.009
860.32	0.013
860.49	0.012
860.66	0.008
860.83	0.006
861.01	0.006
861.18	0.010
861.35	0.008
861.52	0.004
861.69	0.001
861.86	0.002
862.03	0.006
862.21	0.007
862.38	0.010
862.55	0.011
862.72	0.012
862.89	0.015
863.06	0.013
863.23	0.017
863.40	0.017
863.58	0.015
863.75	0.014
863.92	0.010
864.09	0.005
864.26	0.003
864.43	0.002
864.60	0.003
864.77	-0.000
864.94	0.003
865.11	-0.000
865.29	0.002
865.46	0.006
865.63	0.005
865.80	0.004
865.97	0.009
866.14	0.010
866.31	0.013
866.48	0.012
866.65	0.016
866.82	0.010
866.99	0.010
867.16	0.008
867.34	0.008
867.51	0.011
867.68	0.013
867.85	0.009
868.02	0.006
868.19	0.003
868.36	0.003
868.53	-0.005
868.70	-0.002
868.87	-0.006
869.04	-0.005
869.21	-0.006
869.38	-0.008
869.55	-0.008
869.72	-0.009
869.89	-0.003
870.06	-0.003
870.24	-0.001
870.41	0.001
870.58	0.000
870.75	0.006
870.92	0.008
871.09	0.008
871.26	0.011
871.43	0.017
871.60	0.017
871.77	0.012
871.94	0.018
872.11	0.013
872.28	0.012
872.45	0.013
872.62	0.013
872.79	0.009
872.96	0.010
873.13	0.002
873.30	-0.005
873.47	-0.005
873.64	-0.002
873.81	-0.006
873.98	-0.000
874.15	0.006
874.32	0.006
874.49	0.009
874.66	0.010
874.83	0.011
875.00	0.010
875.17	0.009
875.34	0.010
875.51	0.013
875.68	0.014
875.85	0.014
876.02	0.013
876.19	0.014
876.36	0.009
876.53	0.010
876.70	0.008
876.87	0.012
877.04	0.021
877.21	0.027
877.38	0.022
877.55	0.022
877.72	0.021
877.89	0.019
878.06	0.013
878.23	0.017
878.39	0.014
878.56	0.021
878.73	0.023
878.90	0.020
879.07	0.014
879.24	0.012
879.41	0.015
879.58	0.014
879.75	0.012
879.92	0.016
880.09	0.014
880.26	0.019
880.43	0.017
880.60	0.017
880.77	0.020
880.94	0.022
881.11	0.028
881.27	0.031
881.44	0.031
881.61	0.034
881.78	0.034
881.95	0.034
882.12	0.030
882.29	0.024
882.46	0.019
882.63	0.016
882.80	0.018
882.97	0.018
883.14	0.010
883.30	0.008
883.47	0.006
883.64	0.007
883.81	0.010
883.98	0.012
884.15	0.013
884.32	0.024
884.49	0.018
884.66	0.008
884.82	0.005
884.99	0.006
885.16	0.012
885.33	0.007
885.50	0.011
885.67	0.013
885.84	0.013
886.01	0.001
886.17	-0.010
886.34	0.003
886.51	0.008
886.68	0.006
886.85	0.006
887.02	0.007
887.19	0.006
887.36	0.000
887.52	-0.009
887.69	-0.001
887.86	0.009
888.03	0.010
888.20	0.008
888.37	0.003
888.54	0.002
888.70	0.007
888.87	-0.001
889.04	0.006
889.21	0.005
889.38	0.013
889.55	0.004
889.71	-0.017
889.88	0.002
890.05	-0.061
890.22	0.049
890.39	-0.010
>>>>>End Processed Spectral Data<<<<<
