SpectraSuite Data File
++++++++++++++++++++++++++++++++++++
Date: Mon Jun 15 09:29:37 PDT 2015
User: introlabs
Dark Spectrum Present: Yes
Reference Spectrum Present: Yes
Number of Sampled Component Spectra: 1
Spectrometers: USB4H08886
Integration Time (usec): 44366 (USB4H08886)
Spectra Averaged: 20 (USB4H08886)
Boxcar Smoothing: 5 (USB4H08886)
Correct for Electrical Dark: Yes (USB4H08886)
Strobe/Lamp Enabled: No (USB4H08886)
Correct for Detector Non-linearity: Yes (USB4H08886)
Correct for Stray Light: Yes (USB4H08886)
Number of Pixels in Processed Spectrum: 3648
>>>>>Begin Processed Spectral Data<<<<<
178.14	0.821
178.36	0.821
178.57	0.821
178.79	-0.000
179.01	-0.959
179.22	0.680
179.44	0.355
179.65	0.482
179.87	0.746
180.08	-0.000
180.30	-0.000
180.52	-0.000
180.73	0.404
180.95	0.287
181.16	0.188
181.38	0.160
181.59	0.148
181.81	0.145
182.03	0.143
182.24	0.158
182.46	0.132
182.67	0.132
182.89	0.126
183.10	0.140
183.32	0.132
183.54	0.124
183.75	0.129
183.97	0.132
184.18	0.127
184.40	0.123
184.61	0.122
184.83	0.127
185.04	0.125
185.26	0.125
185.48	0.118
185.69	0.127
185.91	0.133
186.12	0.130
186.34	0.132
186.55	0.134
186.77	0.134
186.98	0.126
187.20	0.118
187.42	0.125
187.63	0.130
187.85	0.132
188.06	0.130
188.28	0.132
188.49	0.136
188.71	0.131
188.92	0.125
189.14	0.124
189.36	0.134
189.57	0.133
189.79	0.126
190.00	0.115
190.22	0.112
190.43	0.113
190.65	0.102
190.86	0.103
191.08	0.105
191.29	0.110
191.51	0.113
191.72	0.093
191.94	0.104
192.16	0.101
192.37	0.103
192.59	0.106
192.80	0.092
193.02	0.100
193.23	0.102
193.45	0.099
193.66	0.097
193.88	0.094
194.09	0.111
194.31	0.106
194.52	0.110
194.74	0.116
194.95	0.108
195.17	0.126
195.38	0.121
195.60	0.108
195.81	0.112
196.03	0.121
196.25	0.137
196.46	0.125
196.68	0.132
196.89	0.139
197.11	0.140
197.32	0.147
197.54	0.127
197.75	0.139
197.97	0.149
198.18	0.142
198.40	0.134
198.61	0.117
198.83	0.115
199.04	0.113
199.26	0.103
199.47	0.096
199.69	0.096
199.90	0.109
200.12	0.104
200.33	0.104
200.55	0.106
200.76	0.100
200.98	0.094
201.19	0.093
201.41	0.095
201.62	0.101
201.84	0.105
202.05	0.105
202.27	0.106
202.48	0.110
202.70	0.103
202.91	0.107
203.13	0.102
203.34	0.100
203.56	0.106
203.77	0.101
203.99	0.092
204.20	0.096
204.42	0.090
204.63	0.081
204.85	0.080
205.06	0.083
205.28	0.087
205.49	0.098
205.71	0.109
205.92	0.105
206.14	0.101
206.35	0.111
206.56	0.117
206.78	0.119
206.99	0.121
207.21	0.125
207.42	0.127
207.64	0.126
207.85	0.126
208.07	0.134
208.28	0.139
208.50	0.138
208.71	0.132
208.93	0.125
209.14	0.133
209.36	0.139
209.57	0.136
209.79	0.145
210.00	0.145
210.22	0.141
210.43	0.128
210.64	0.124
210.86	0.126
211.07	0.125
211.29	0.121
211.50	0.116
211.72	0.103
211.93	0.107
212.15	0.107
212.36	0.100
212.58	0.099
212.79	0.101
213.01	0.098
213.22	0.098
213.43	0.100
213.65	0.105
213.86	0.103
214.08	0.114
214.29	0.107
214.51	0.095
214.72	0.104
214.94	0.108
215.15	0.116
215.36	0.117
215.58	0.115
215.79	0.111
216.01	0.106
216.22	0.107
216.44	0.105
216.65	0.106
216.87	0.115
217.08	0.114
217.29	0.118
217.51	0.114
217.72	0.111
217.94	0.116
218.15	0.121
218.37	0.123
218.58	0.116
218.80	0.118
219.01	0.116
219.22	0.114
219.44	0.111
219.65	0.104
219.87	0.106
220.08	0.107
220.30	0.100
220.51	0.095
220.72	0.096
220.94	0.098
221.15	0.098
221.37	0.093
221.58	0.090
221.79	0.099
222.01	0.095
222.22	0.093
222.44	0.100
222.65	0.103
222.87	0.100
223.08	0.101
223.29	0.099
223.51	0.096
223.72	0.100
223.94	0.100
224.15	0.090
224.36	0.094
224.58	0.083
224.79	0.080
225.01	0.078
225.22	0.081
225.44	0.078
225.65	0.083
225.86	0.089
226.08	0.090
226.29	0.087
226.51	0.092
226.72	0.095
226.93	0.104
227.15	0.101
227.36	0.105
227.58	0.103
227.79	0.106
228.00	0.106
228.22	0.096
228.43	0.094
228.65	0.097
228.86	0.095
229.07	0.094
229.29	0.092
229.50	0.093
229.72	0.093
229.93	0.093
230.14	0.092
230.36	0.089
230.57	0.094
230.78	0.090
231.00	0.088
231.21	0.085
231.43	0.084
231.64	0.086
231.85	0.087
232.07	0.088
232.28	0.088
232.50	0.083
232.71	0.085
232.92	0.087
233.14	0.088
233.35	0.090
233.56	0.092
233.78	0.089
233.99	0.087
234.21	0.087
234.42	0.088
234.63	0.091
234.85	0.093
235.06	0.094
235.27	0.096
235.49	0.099
235.70	0.098
235.91	0.097
236.13	0.101
236.34	0.103
236.56	0.102
236.77	0.103
236.98	0.104
237.20	0.105
237.41	0.106
237.62	0.106
237.84	0.106
238.05	0.107
238.26	0.108
238.48	0.109
238.69	0.110
238.91	0.111
239.12	0.112
239.33	0.111
239.55	0.112
239.76	0.113
239.97	0.114
240.19	0.115
240.40	0.116
240.61	0.117
240.83	0.117
241.04	0.118
241.25	0.119
241.47	0.120
241.68	0.123
241.89	0.123
242.11	0.124
242.32	0.124
242.53	0.125
242.75	0.127
242.96	0.128
243.17	0.129
243.39	0.131
243.60	0.131
243.81	0.131
244.03	0.130
244.24	0.131
244.45	0.132
244.67	0.132
244.88	0.133
245.09	0.133
245.31	0.134
245.52	0.133
245.73	0.133
245.95	0.134
246.16	0.134
246.37	0.134
246.59	0.135
246.80	0.135
247.01	0.136
247.23	0.136
247.44	0.136
247.65	0.136
247.87	0.136
248.08	0.136
248.29	0.136
248.51	0.137
248.72	0.137
248.93	0.137
249.15	0.138
249.36	0.138
249.57	0.138
249.78	0.138
250.00	0.139
250.21	0.139
250.42	0.140
250.64	0.139
250.85	0.140
251.06	0.141
251.28	0.141
251.49	0.141
251.70	0.141
251.92	0.142
252.13	0.143
252.34	0.142
252.55	0.142
252.77	0.142
252.98	0.142
253.19	0.142
253.41	0.143
253.62	0.143
253.83	0.144
254.05	0.143
254.26	0.143
254.47	0.143
254.68	0.143
254.90	0.143
255.11	0.143
255.32	0.143
255.54	0.143
255.75	0.142
255.96	0.141
256.17	0.141
256.39	0.141
256.60	0.141
256.81	0.141
257.03	0.142
257.24	0.142
257.45	0.142
257.66	0.141
257.88	0.141
258.09	0.141
258.30	0.142
258.51	0.142
258.73	0.141
258.94	0.141
259.15	0.141
259.37	0.140
259.58	0.140
259.79	0.140
260.00	0.140
260.22	0.140
260.43	0.140
260.64	0.140
260.85	0.139
261.07	0.139
261.28	0.139
261.49	0.139
261.71	0.138
261.92	0.138
262.13	0.138
262.34	0.137
262.56	0.137
262.77	0.137
262.98	0.136
263.19	0.136
263.41	0.135
263.62	0.135
263.83	0.135
264.04	0.134
264.26	0.134
264.47	0.134
264.68	0.134
264.89	0.134
265.11	0.133
265.32	0.133
265.53	0.133
265.74	0.133
265.96	0.133
266.17	0.133
266.38	0.133
266.59	0.133
266.81	0.132
267.02	0.132
267.23	0.131
267.44	0.131
267.65	0.130
267.87	0.130
268.08	0.129
268.29	0.129
268.50	0.128
268.72	0.128
268.93	0.128
269.14	0.128
269.35	0.127
269.57	0.127
269.78	0.127
269.99	0.127
270.20	0.127
270.41	0.126
270.63	0.127
270.84	0.126
271.05	0.126
271.26	0.126
271.48	0.125
271.69	0.125
271.90	0.124
272.11	0.124
272.32	0.123
272.54	0.123
272.75	0.123
272.96	0.123
273.17	0.123
273.39	0.123
273.60	0.122
273.81	0.122
274.02	0.122
274.23	0.122
274.45	0.122
274.66	0.122
274.87	0.122
275.08	0.121
275.29	0.121
275.51	0.121
275.72	0.121
275.93	0.121
276.14	0.120
276.35	0.121
276.57	0.121
276.78	0.120
276.99	0.121
277.20	0.121
277.41	0.121
277.63	0.121
277.84	0.121
278.05	0.120
278.26	0.121
278.47	0.121
278.69	0.121
278.90	0.121
279.11	0.121
279.32	0.121
279.53	0.121
279.74	0.122
279.96	0.122
280.17	0.122
280.38	0.123
280.59	0.122
280.80	0.122
281.02	0.122
281.23	0.122
281.44	0.123
281.65	0.123
281.86	0.123
282.07	0.123
282.29	0.123
282.50	0.123
282.71	0.123
282.92	0.123
283.13	0.123
283.35	0.124
283.56	0.124
283.77	0.124
283.98	0.124
284.19	0.124
284.40	0.125
284.62	0.125
284.83	0.125
285.04	0.125
285.25	0.125
285.46	0.126
285.67	0.126
285.88	0.127
286.10	0.127
286.31	0.128
286.52	0.128
286.73	0.129
286.94	0.129
287.15	0.130
287.37	0.131
287.58	0.131
287.79	0.132
288.00	0.133
288.21	0.133
288.42	0.134
288.63	0.134
288.85	0.134
289.06	0.135
289.27	0.135
289.48	0.136
289.69	0.136
289.90	0.136
290.11	0.137
290.33	0.137
290.54	0.137
290.75	0.137
290.96	0.138
291.17	0.138
291.38	0.138
291.59	0.139
291.81	0.139
292.02	0.139
292.23	0.139
292.44	0.139
292.65	0.139
292.86	0.139
293.07	0.139
293.28	0.139
293.50	0.139
293.71	0.139
293.92	0.139
294.13	0.140
294.34	0.140
294.55	0.140
294.76	0.140
294.97	0.140
295.19	0.140
295.40	0.140
295.61	0.140
295.82	0.140
296.03	0.139
296.24	0.140
296.45	0.139
296.66	0.139
296.87	0.139
297.09	0.139
297.30	0.139
297.51	0.139
297.72	0.139
297.93	0.138
298.14	0.139
298.35	0.139
298.56	0.138
298.77	0.139
298.99	0.139
299.20	0.139
299.41	0.139
299.62	0.139
299.83	0.139
300.04	0.139
300.25	0.139
300.46	0.139
300.67	0.139
300.88	0.139
301.10	0.139
301.31	0.138
301.52	0.138
301.73	0.138
301.94	0.138
302.15	0.138
302.36	0.138
302.57	0.138
302.78	0.138
302.99	0.138
303.20	0.137
303.41	0.137
303.63	0.137
303.84	0.137
304.05	0.137
304.26	0.137
304.47	0.137
304.68	0.137
304.89	0.137
305.10	0.137
305.31	0.137
305.52	0.137
305.73	0.137
305.94	0.137
306.15	0.136
306.37	0.136
306.58	0.136
306.79	0.136
307.00	0.136
307.21	0.136
307.42	0.136
307.63	0.136
307.84	0.136
308.05	0.136
308.26	0.136
308.47	0.136
308.68	0.136
308.89	0.136
309.10	0.136
309.31	0.136
309.52	0.136
309.73	0.136
309.95	0.136
310.16	0.135
310.37	0.135
310.58	0.135
310.79	0.135
311.00	0.135
311.21	0.135
311.42	0.135
311.63	0.135
311.84	0.135
312.05	0.135
312.26	0.135
312.47	0.135
312.68	0.135
312.89	0.135
313.10	0.135
313.31	0.135
313.52	0.135
313.73	0.135
313.94	0.135
314.15	0.135
314.36	0.135
314.57	0.135
314.78	0.135
314.99	0.134
315.21	0.134
315.42	0.134
315.63	0.134
315.84	0.134
316.05	0.134
316.26	0.134
316.47	0.134
316.68	0.134
316.89	0.134
317.10	0.134
317.31	0.134
317.52	0.134
317.73	0.134
317.94	0.134
318.15	0.134
318.36	0.134
318.57	0.134
318.78	0.134
318.99	0.133
319.20	0.133
319.41	0.133
319.62	0.133
319.83	0.133
320.04	0.133
320.25	0.133
320.46	0.133
320.67	0.133
320.88	0.133
321.09	0.133
321.30	0.133
321.51	0.132
321.72	0.132
321.93	0.132
322.14	0.132
322.35	0.132
322.56	0.132
322.77	0.132
322.98	0.132
323.19	0.132
323.40	0.132
323.61	0.132
323.82	0.132
324.03	0.132
324.24	0.132
324.45	0.132
324.66	0.132
324.87	0.132
325.08	0.132
325.29	0.131
325.50	0.131
325.71	0.131
325.92	0.131
326.13	0.131
326.34	0.131
326.55	0.131
326.76	0.131
326.97	0.131
327.18	0.131
327.39	0.131
327.60	0.131
327.80	0.131
328.01	0.130
328.22	0.130
328.43	0.130
328.64	0.130
328.85	0.130
329.06	0.130
329.27	0.130
329.48	0.130
329.69	0.130
329.90	0.130
330.11	0.130
330.32	0.129
330.53	0.129
330.74	0.129
330.95	0.129
331.16	0.129
331.37	0.129
331.58	0.129
331.79	0.129
332.00	0.129
332.21	0.129
332.42	0.129
332.63	0.129
332.83	0.129
333.04	0.129
333.25	0.128
333.46	0.129
333.67	0.128
333.88	0.128
334.09	0.128
334.30	0.128
334.51	0.128
334.72	0.128
334.93	0.128
335.14	0.128
335.35	0.128
335.56	0.128
335.77	0.127
335.98	0.127
336.18	0.127
336.39	0.127
336.60	0.127
336.81	0.127
337.02	0.127
337.23	0.127
337.44	0.127
337.65	0.127
337.86	0.127
338.07	0.127
338.28	0.127
338.49	0.126
338.70	0.126
338.91	0.126
339.11	0.126
339.32	0.126
339.53	0.126
339.74	0.126
339.95	0.125
340.16	0.125
340.37	0.125
340.58	0.125
340.79	0.125
341.00	0.125
341.21	0.125
341.41	0.125
341.62	0.125
341.83	0.124
342.04	0.124
342.25	0.124
342.46	0.124
342.67	0.124
342.88	0.124
343.09	0.124
343.30	0.124
343.50	0.124
343.71	0.123
343.92	0.124
344.13	0.124
344.34	0.124
344.55	0.123
344.76	0.123
344.97	0.123
345.18	0.123
345.38	0.123
345.59	0.123
345.80	0.123
346.01	0.123
346.22	0.123
346.43	0.123
346.64	0.123
346.85	0.123
347.06	0.123
347.26	0.123
347.47	0.123
347.68	0.122
347.89	0.122
348.10	0.122
348.31	0.122
348.52	0.122
348.73	0.122
348.93	0.122
349.14	0.121
349.35	0.121
349.56	0.121
349.77	0.121
349.98	0.121
350.19	0.121
350.39	0.121
350.60	0.121
350.81	0.121
351.02	0.120
351.23	0.121
351.44	0.121
351.65	0.121
351.86	0.121
352.06	0.120
352.27	0.120
352.48	0.120
352.69	0.121
352.90	0.120
353.11	0.120
353.31	0.120
353.52	0.120
353.73	0.120
353.94	0.120
354.15	0.120
354.36	0.120
354.57	0.120
354.77	0.120
354.98	0.120
355.19	0.120
355.40	0.120
355.61	0.120
355.82	0.120
356.02	0.120
356.23	0.120
356.44	0.119
356.65	0.119
356.86	0.119
357.07	0.119
357.27	0.119
357.48	0.119
357.69	0.119
357.90	0.119
358.11	0.119
358.32	0.119
358.52	0.119
358.73	0.119
358.94	0.118
359.15	0.118
359.36	0.118
359.56	0.118
359.77	0.118
359.98	0.118
360.19	0.118
360.40	0.118
360.61	0.118
360.81	0.118
361.02	0.118
361.23	0.118
361.44	0.118
361.65	0.118
361.85	0.118
362.06	0.118
362.27	0.118
362.48	0.118
362.69	0.118
362.89	0.118
363.10	0.118
363.31	0.118
363.52	0.117
363.73	0.117
363.93	0.118
364.14	0.117
364.35	0.117
364.56	0.117
364.77	0.117
364.97	0.117
365.18	0.117
365.39	0.117
365.60	0.117
365.81	0.117
366.01	0.117
366.22	0.117
366.43	0.117
366.64	0.116
366.84	0.117
367.05	0.116
367.26	0.116
367.47	0.116
367.68	0.116
367.88	0.116
368.09	0.116
368.30	0.117
368.51	0.116
368.71	0.116
368.92	0.116
369.13	0.116
369.34	0.116
369.55	0.116
369.75	0.116
369.96	0.116
370.17	0.116
370.38	0.116
370.58	0.116
370.79	0.116
371.00	0.115
371.21	0.115
371.41	0.115
371.62	0.115
371.83	0.115
372.04	0.115
372.24	0.115
372.45	0.115
372.66	0.115
372.87	0.115
373.07	0.115
373.28	0.115
373.49	0.115
373.70	0.115
373.90	0.115
374.11	0.115
374.32	0.115
374.53	0.115
374.73	0.115
374.94	0.115
375.15	0.115
375.36	0.115
375.56	0.115
375.77	0.114
375.98	0.114
376.19	0.114
376.39	0.114
376.60	0.114
376.81	0.114
377.02	0.114
377.22	0.114
377.43	0.114
377.64	0.114
377.84	0.114
378.05	0.114
378.26	0.113
378.47	0.114
378.67	0.114
378.88	0.114
379.09	0.114
379.30	0.113
379.50	0.113
379.71	0.113
379.92	0.113
380.12	0.113
380.33	0.113
380.54	0.113
380.75	0.113
380.95	0.113
381.16	0.113
381.37	0.113
381.57	0.113
381.78	0.113
381.99	0.113
382.20	0.113
382.40	0.113
382.61	0.113
382.82	0.113
383.02	0.112
383.23	0.112
383.44	0.113
383.64	0.112
383.85	0.112
384.06	0.112
384.27	0.112
384.47	0.112
384.68	0.112
384.89	0.112
385.09	0.112
385.30	0.112
385.51	0.111
385.71	0.111
385.92	0.111
386.13	0.111
386.33	0.111
386.54	0.111
386.75	0.111
386.95	0.111
387.16	0.111
387.37	0.111
387.58	0.111
387.78	0.111
387.99	0.111
388.20	0.111
388.40	0.111
388.61	0.111
388.82	0.111
389.02	0.111
389.23	0.111
389.44	0.111
389.64	0.111
389.85	0.111
390.06	0.111
390.26	0.111
390.47	0.110
390.68	0.110
390.88	0.110
391.09	0.110
391.30	0.110
391.50	0.110
391.71	0.110
391.92	0.110
392.12	0.110
392.33	0.110
392.53	0.110
392.74	0.110
392.95	0.110
393.15	0.110
393.36	0.110
393.57	0.110
393.77	0.110
393.98	0.110
394.19	0.110
394.39	0.110
394.60	0.110
394.81	0.110
395.01	0.110
395.22	0.110
395.43	0.110
395.63	0.109
395.84	0.109
396.04	0.109
396.25	0.109
396.46	0.109
396.66	0.109
396.87	0.109
397.08	0.109
397.28	0.109
397.49	0.109
397.69	0.109
397.90	0.109
398.11	0.109
398.31	0.109
398.52	0.108
398.73	0.108
398.93	0.108
399.14	0.108
399.34	0.108
399.55	0.108
399.76	0.108
399.96	0.108
400.17	0.108
400.37	0.109
400.58	0.108
400.79	0.108
400.99	0.108
401.20	0.108
401.41	0.108
401.61	0.108
401.82	0.108
402.02	0.108
402.23	0.108
402.44	0.108
402.64	0.108
402.85	0.107
403.05	0.107
403.26	0.107
403.47	0.107
403.67	0.107
403.88	0.107
404.08	0.107
404.29	0.107
404.50	0.107
404.70	0.107
404.91	0.107
405.11	0.107
405.32	0.107
405.52	0.107
405.73	0.107
405.94	0.106
406.14	0.106
406.35	0.106
406.55	0.106
406.76	0.106
406.97	0.106
407.17	0.106
407.38	0.106
407.58	0.106
407.79	0.106
407.99	0.106
408.20	0.106
408.41	0.106
408.61	0.106
408.82	0.106
409.02	0.106
409.23	0.106
409.43	0.106
409.64	0.106
409.84	0.106
410.05	0.106
410.26	0.106
410.46	0.106
410.67	0.106
410.87	0.106
411.08	0.106
411.28	0.106
411.49	0.106
411.69	0.106
411.90	0.105
412.11	0.105
412.31	0.105
412.52	0.105
412.72	0.105
412.93	0.105
413.13	0.105
413.34	0.105
413.54	0.105
413.75	0.105
413.95	0.105
414.16	0.105
414.37	0.105
414.57	0.105
414.78	0.105
414.98	0.105
415.19	0.105
415.39	0.105
415.60	0.105
415.80	0.104
416.01	0.104
416.21	0.104
416.42	0.104
416.62	0.104
416.83	0.104
417.03	0.104
417.24	0.104
417.44	0.104
417.65	0.103
417.86	0.103
418.06	0.103
418.27	0.103
418.47	0.103
418.68	0.103
418.88	0.103
419.09	0.103
419.29	0.103
419.50	0.103
419.70	0.103
419.91	0.103
420.11	0.103
420.32	0.103
420.52	0.103
420.73	0.103
420.93	0.103
421.14	0.103
421.34	0.103
421.55	0.103
421.75	0.103
421.96	0.102
422.16	0.102
422.37	0.102
422.57	0.102
422.78	0.102
422.98	0.102
423.19	0.103
423.39	0.103
423.60	0.103
423.80	0.103
424.01	0.103
424.21	0.103
424.42	0.103
424.62	0.103
424.83	0.103
425.03	0.103
425.23	0.103
425.44	0.102
425.64	0.102
425.85	0.102
426.05	0.102
426.26	0.102
426.46	0.102
426.67	0.102
426.87	0.102
427.08	0.102
427.28	0.102
427.49	0.101
427.69	0.101
427.90	0.101
428.10	0.101
428.31	0.101
428.51	0.101
428.71	0.101
428.92	0.101
429.12	0.101
429.33	0.101
429.53	0.101
429.74	0.101
429.94	0.101
430.15	0.101
430.35	0.101
430.56	0.101
430.76	0.101
430.96	0.101
431.17	0.101
431.37	0.101
431.58	0.101
431.78	0.101
431.99	0.102
432.19	0.102
432.40	0.101
432.60	0.101
432.80	0.101
433.01	0.101
433.21	0.101
433.42	0.101
433.62	0.101
433.83	0.101
434.03	0.101
434.23	0.101
434.44	0.101
434.64	0.101
434.85	0.101
435.05	0.101
435.26	0.100
435.46	0.100
435.66	0.100
435.87	0.100
436.07	0.100
436.28	0.100
436.48	0.100
436.69	0.100
436.89	0.100
437.09	0.100
437.30	0.100
437.50	0.100
437.71	0.100
437.91	0.100
438.11	0.100
438.32	0.100
438.52	0.100
438.73	0.100
438.93	0.100
439.13	0.099
439.34	0.099
439.54	0.099
439.75	0.099
439.95	0.099
440.15	0.099
440.36	0.099
440.56	0.099
440.77	0.099
440.97	0.099
441.17	0.099
441.38	0.099
441.58	0.099
441.79	0.099
441.99	0.099
442.19	0.098
442.40	0.098
442.60	0.098
442.81	0.098
443.01	0.098
443.21	0.098
443.42	0.098
443.62	0.098
443.82	0.098
444.03	0.098
444.23	0.098
444.44	0.098
444.64	0.098
444.84	0.098
445.05	0.098
445.25	0.098
445.45	0.098
445.66	0.098
445.86	0.098
446.06	0.098
446.27	0.098
446.47	0.098
446.68	0.098
446.88	0.098
447.08	0.098
447.29	0.098
447.49	0.098
447.69	0.098
447.90	0.098
448.10	0.098
448.30	0.098
448.51	0.098
448.71	0.098
448.91	0.098
449.12	0.098
449.32	0.098
449.52	0.098
449.73	0.098
449.93	0.098
450.14	0.098
450.34	0.097
450.54	0.097
450.75	0.097
450.95	0.097
451.15	0.097
451.36	0.097
451.56	0.097
451.76	0.097
451.97	0.097
452.17	0.097
452.37	0.097
452.58	0.097
452.78	0.097
452.98	0.097
453.19	0.097
453.39	0.097
453.59	0.097
453.79	0.097
454.00	0.097
454.20	0.097
454.40	0.097
454.61	0.097
454.81	0.097
455.01	0.097
455.22	0.097
455.42	0.096
455.62	0.096
455.83	0.096
456.03	0.096
456.23	0.097
456.44	0.097
456.64	0.097
456.84	0.097
457.04	0.097
457.25	0.096
457.45	0.096
457.65	0.096
457.86	0.096
458.06	0.096
458.26	0.096
458.47	0.096
458.67	0.096
458.87	0.096
459.07	0.096
459.28	0.096
459.48	0.096
459.68	0.096
459.89	0.096
460.09	0.096
460.29	0.096
460.49	0.096
460.70	0.096
460.90	0.096
461.10	0.096
461.31	0.096
461.51	0.096
461.71	0.096
461.91	0.096
462.12	0.096
462.32	0.096
462.52	0.095
462.72	0.095
462.93	0.095
463.13	0.095
463.33	0.095
463.53	0.095
463.74	0.094
463.94	0.094
464.14	0.094
464.35	0.094
464.55	0.094
464.75	0.094
464.95	0.094
465.16	0.094
465.36	0.095
465.56	0.095
465.76	0.095
465.97	0.095
466.17	0.095
466.37	0.095
466.57	0.095
466.78	0.095
466.98	0.095
467.18	0.095
467.38	0.095
467.59	0.095
467.79	0.095
467.99	0.095
468.19	0.095
468.39	0.095
468.60	0.094
468.80	0.095
469.00	0.094
469.20	0.094
469.41	0.094
469.61	0.094
469.81	0.094
470.01	0.094
470.22	0.094
470.42	0.094
470.62	0.094
470.82	0.094
471.02	0.094
471.23	0.094
471.43	0.094
471.63	0.094
471.83	0.093
472.04	0.093
472.24	0.093
472.44	0.093
472.64	0.093
472.84	0.093
473.05	0.093
473.25	0.093
473.45	0.093
473.65	0.093
473.85	0.093
474.06	0.093
474.26	0.093
474.46	0.093
474.66	0.093
474.86	0.093
475.07	0.093
475.27	0.093
475.47	0.093
475.67	0.093
475.87	0.093
476.08	0.093
476.28	0.093
476.48	0.093
476.68	0.093
476.88	0.093
477.09	0.094
477.29	0.093
477.49	0.093
477.69	0.093
477.89	0.093
478.09	0.093
478.30	0.093
478.50	0.093
478.70	0.092
478.90	0.092
479.10	0.092
479.31	0.092
479.51	0.092
479.71	0.092
479.91	0.092
480.11	0.092
480.31	0.092
480.52	0.092
480.72	0.092
480.92	0.092
481.12	0.092
481.32	0.092
481.52	0.092
481.72	0.092
481.93	0.092
482.13	0.092
482.33	0.091
482.53	0.091
482.73	0.091
482.93	0.091
483.14	0.091
483.34	0.091
483.54	0.091
483.74	0.091
483.94	0.091
484.14	0.091
484.34	0.091
484.55	0.091
484.75	0.091
484.95	0.091
485.15	0.091
485.35	0.091
485.55	0.091
485.75	0.091
485.96	0.091
486.16	0.091
486.36	0.091
486.56	0.091
486.76	0.091
486.96	0.091
487.16	0.092
487.36	0.092
487.57	0.092
487.77	0.092
487.97	0.092
488.17	0.092
488.37	0.092
488.57	0.092
488.77	0.092
488.97	0.092
489.18	0.092
489.38	0.092
489.58	0.092
489.78	0.092
489.98	0.092
490.18	0.092
490.38	0.092
490.58	0.092
490.78	0.091
490.98	0.091
491.19	0.091
491.39	0.091
491.59	0.091
491.79	0.091
491.99	0.091
492.19	0.091
492.39	0.091
492.59	0.091
492.79	0.091
492.99	0.091
493.20	0.090
493.40	0.091
493.60	0.090
493.80	0.090
494.00	0.090
494.20	0.090
494.40	0.090
494.60	0.090
494.80	0.090
495.00	0.090
495.20	0.090
495.40	0.090
495.61	0.090
495.81	0.090
496.01	0.090
496.21	0.090
496.41	0.091
496.61	0.091
496.81	0.091
497.01	0.091
497.21	0.091
497.41	0.091
497.61	0.091
497.81	0.091
498.01	0.091
498.21	0.091
498.41	0.091
498.61	0.091
498.82	0.091
499.02	0.091
499.22	0.091
499.42	0.091
499.62	0.090
499.82	0.090
500.02	0.090
500.22	0.090
500.42	0.090
500.62	0.090
500.82	0.090
501.02	0.090
501.22	0.090
501.42	0.090
501.62	0.090
501.82	0.090
502.02	0.090
502.22	0.090
502.42	0.090
502.62	0.090
502.82	0.090
503.02	0.090
503.22	0.090
503.42	0.090
503.63	0.090
503.83	0.090
504.03	0.090
504.23	0.090
504.43	0.090
504.63	0.090
504.83	0.090
505.03	0.090
505.23	0.090
505.43	0.090
505.63	0.090
505.83	0.090
506.03	0.090
506.23	0.090
506.43	0.090
506.63	0.090
506.83	0.090
507.03	0.090
507.23	0.090
507.43	0.090
507.63	0.090
507.83	0.090
508.03	0.090
508.23	0.090
508.43	0.090
508.63	0.090
508.83	0.090
509.03	0.090
509.23	0.090
509.43	0.090
509.63	0.090
509.83	0.090
510.03	0.090
510.23	0.090
510.43	0.090
510.63	0.090
510.83	0.090
511.03	0.090
511.23	0.090
511.43	0.090
511.63	0.090
511.83	0.089
512.03	0.090
512.22	0.089
512.42	0.089
512.62	0.089
512.82	0.089
513.02	0.089
513.22	0.089
513.42	0.089
513.62	0.089
513.82	0.090
514.02	0.089
514.22	0.089
514.42	0.089
514.62	0.089
514.82	0.089
515.02	0.089
515.22	0.089
515.42	0.089
515.62	0.089
515.82	0.089
516.02	0.089
516.22	0.089
516.42	0.089
516.62	0.089
516.82	0.089
517.01	0.089
517.21	0.089
517.41	0.089
517.61	0.089
517.81	0.089
518.01	0.089
518.21	0.089
518.41	0.089
518.61	0.089
518.81	0.089
519.01	0.089
519.21	0.089
519.41	0.089
519.61	0.089
519.81	0.089
520.00	0.089
520.20	0.089
520.40	0.089
520.60	0.089
520.80	0.089
521.00	0.089
521.20	0.089
521.40	0.089
521.60	0.089
521.80	0.089
522.00	0.089
522.20	0.089
522.39	0.089
522.59	0.088
522.79	0.088
522.99	0.088
523.19	0.088
523.39	0.088
523.59	0.088
523.79	0.088
523.99	0.088
524.19	0.088
524.38	0.088
524.58	0.088
524.78	0.088
524.98	0.088
525.18	0.088
525.38	0.088
525.58	0.088
525.78	0.088
525.98	0.088
526.18	0.088
526.37	0.088
526.57	0.088
526.77	0.088
526.97	0.088
527.17	0.087
527.37	0.087
527.57	0.087
527.77	0.087
527.96	0.087
528.16	0.087
528.36	0.087
528.56	0.088
528.76	0.087
528.96	0.088
529.16	0.087
529.36	0.088
529.55	0.088
529.75	0.088
529.95	0.088
530.15	0.088
530.35	0.088
530.55	0.088
530.75	0.088
530.94	0.088
531.14	0.088
531.34	0.088
531.54	0.088
531.74	0.087
531.94	0.087
532.13	0.087
532.33	0.087
532.53	0.087
532.73	0.087
532.93	0.087
533.13	0.087
533.33	0.087
533.52	0.087
533.72	0.087
533.92	0.087
534.12	0.087
534.32	0.087
534.52	0.087
534.71	0.088
534.91	0.088
535.11	0.088
535.31	0.087
535.51	0.087
535.71	0.087
535.90	0.087
536.10	0.087
536.30	0.087
536.50	0.087
536.70	0.087
536.89	0.087
537.09	0.087
537.29	0.087
537.49	0.087
537.69	0.087
537.89	0.087
538.08	0.087
538.28	0.087
538.48	0.087
538.68	0.087
538.88	0.087
539.07	0.087
539.27	0.087
539.47	0.087
539.67	0.087
539.87	0.087
540.06	0.087
540.26	0.087
540.46	0.087
540.66	0.087
540.86	0.087
541.05	0.087
541.25	0.087
541.45	0.087
541.65	0.087
541.84	0.087
542.04	0.086
542.24	0.086
542.44	0.086
542.64	0.086
542.83	0.086
543.03	0.086
543.23	0.086
543.43	0.086
543.62	0.086
543.82	0.086
544.02	0.086
544.22	0.086
544.42	0.086
544.61	0.086
544.81	0.086
545.01	0.086
545.21	0.086
545.40	0.086
545.60	0.086
545.80	0.086
546.00	0.086
546.19	0.086
546.39	0.086
546.59	0.086
546.79	0.086
546.98	0.086
547.18	0.086
547.38	0.086
547.58	0.086
547.77	0.086
547.97	0.086
548.17	0.086
548.37	0.086
548.56	0.086
548.76	0.086
548.96	0.086
549.16	0.086
549.35	0.086
549.55	0.086
549.75	0.086
549.95	0.086
550.14	0.086
550.34	0.086
550.54	0.086
550.73	0.085
550.93	0.085
551.13	0.085
551.33	0.085
551.52	0.085
551.72	0.085
551.92	0.085
552.12	0.085
552.31	0.085
552.51	0.085
552.71	0.085
552.90	0.085
553.10	0.085
553.30	0.085
553.50	0.085
553.69	0.085
553.89	0.085
554.09	0.085
554.28	0.086
554.48	0.086
554.68	0.086
554.87	0.086
555.07	0.086
555.27	0.086
555.47	0.086
555.66	0.086
555.86	0.086
556.06	0.086
556.25	0.086
556.45	0.086
556.65	0.086
556.84	0.086
557.04	0.086
557.24	0.086
557.43	0.086
557.63	0.086
557.83	0.086
558.02	0.085
558.22	0.085
558.42	0.085
558.61	0.085
558.81	0.084
559.01	0.084
559.21	0.084
559.40	0.084
559.60	0.084
559.80	0.084
559.99	0.084
560.19	0.084
560.39	0.084
560.58	0.084
560.78	0.084
560.97	0.084
561.17	0.084
561.37	0.084
561.56	0.084
561.76	0.084
561.96	0.084
562.15	0.084
562.35	0.084
562.55	0.084
562.74	0.085
562.94	0.085
563.14	0.085
563.33	0.085
563.53	0.085
563.73	0.085
563.92	0.085
564.12	0.085
564.31	0.084
564.51	0.084
564.71	0.084
564.90	0.084
565.10	0.084
565.30	0.084
565.49	0.084
565.69	0.084
565.89	0.084
566.08	0.084
566.28	0.084
566.47	0.084
566.67	0.084
566.87	0.084
567.06	0.083
567.26	0.083
567.46	0.083
567.65	0.083
567.85	0.083
568.04	0.083
568.24	0.082
568.44	0.082
568.63	0.082
568.83	0.082
569.02	0.082
569.22	0.082
569.42	0.082
569.61	0.082
569.81	0.082
570.00	0.082
570.20	0.082
570.40	0.082
570.59	0.082
570.79	0.082
570.98	0.082
571.18	0.082
571.38	0.082
571.57	0.082
571.77	0.081
571.96	0.082
572.16	0.082
572.35	0.082
572.55	0.082
572.75	0.083
572.94	0.083
573.14	0.083
573.33	0.083
573.53	0.083
573.73	0.083
573.92	0.083
574.12	0.083
574.31	0.083
574.51	0.083
574.70	0.082
574.90	0.081
575.09	0.079
575.29	0.076
575.49	0.074
575.68	0.072
575.88	0.069
576.07	0.067
576.27	0.065
576.46	0.063
576.66	0.060
576.86	0.059
577.05	0.057
577.25	0.056
577.44	0.056
577.64	0.055
577.83	0.055
578.03	0.053
578.22	0.051
578.42	0.048
578.61	0.045
578.81	0.042
579.00	0.039
579.20	0.037
579.40	0.034
579.59	0.031
579.79	0.029
579.98	0.027
580.18	0.026
580.37	0.025
580.57	0.026
580.76	0.027
580.96	0.029
581.15	0.030
581.35	0.032
581.54	0.033
581.74	0.034
581.93	0.034
582.13	0.034
582.32	0.035
582.52	0.036
582.71	0.037
582.91	0.038
583.10	0.040
583.30	0.042
583.49	0.045
583.69	0.047
583.88	0.051
584.08	0.054
584.27	0.058
584.47	0.062
584.66	0.065
584.86	0.067
585.05	0.068
585.25	0.069
585.44	0.069
585.64	0.068
585.83	0.068
586.03	0.068
586.22	0.068
586.42	0.069
586.61	0.071
586.81	0.072
587.00	0.073
587.20	0.075
587.39	0.076
587.59	0.078
587.78	0.080
587.98	0.082
588.17	0.083
588.37	0.083
588.56	0.083
588.76	0.083
588.95	0.083
589.15	0.082
589.34	0.082
589.54	0.082
589.73	0.082
589.92	0.081
590.12	0.081
590.31	0.081
590.51	0.081
590.70	0.080
590.90	0.080
591.09	0.080
591.29	0.080
591.48	0.080
591.68	0.080
591.87	0.080
592.06	0.080
592.26	0.080
592.45	0.080
592.65	0.080
592.84	0.081
593.04	0.081
593.23	0.081
593.43	0.081
593.62	0.081
593.81	0.081
594.01	0.081
594.20	0.082
594.40	0.082
594.59	0.082
594.79	0.082
594.98	0.082
595.17	0.082
595.37	0.082
595.56	0.082
595.76	0.081
595.95	0.081
596.14	0.081
596.34	0.081
596.53	0.080
596.73	0.080
596.92	0.079
597.12	0.079
597.31	0.079
597.50	0.079
597.70	0.079
597.89	0.079
598.09	0.079
598.28	0.079
598.47	0.079
598.67	0.079
598.86	0.079
599.06	0.079
599.25	0.080
599.44	0.080
599.64	0.080
599.83	0.080
600.03	0.081
600.22	0.081
600.41	0.081
600.61	0.081
600.80	0.081
601.00	0.081
601.19	0.082
601.38	0.082
601.58	0.082
601.77	0.082
601.96	0.081
602.16	0.081
602.35	0.081
602.55	0.081
602.74	0.081
602.93	0.080
603.13	0.080
603.32	0.080
603.51	0.079
603.71	0.079
603.90	0.079
604.09	0.079
604.29	0.078
604.48	0.078
604.68	0.078
604.87	0.078
605.06	0.078
605.26	0.078
605.45	0.079
605.64	0.079
605.84	0.079
606.03	0.079
606.22	0.079
606.42	0.079
606.61	0.080
606.80	0.080
607.00	0.080
607.19	0.080
607.38	0.080
607.58	0.080
607.77	0.081
607.96	0.081
608.16	0.081
608.35	0.081
608.54	0.081
608.74	0.081
608.93	0.081
609.12	0.081
609.32	0.081
609.51	0.081
609.70	0.081
609.90	0.081
610.09	0.081
610.28	0.081
610.48	0.080
610.67	0.080
610.86	0.080
611.06	0.080
611.25	0.080
611.44	0.080
611.64	0.079
611.83	0.079
612.02	0.079
612.21	0.079
612.41	0.079
612.60	0.079
612.79	0.079
612.99	0.079
613.18	0.079
613.37	0.079
613.57	0.079
613.76	0.079
613.95	0.079
614.14	0.080
614.34	0.080
614.53	0.080
614.72	0.080
614.92	0.080
615.11	0.080
615.30	0.080
615.49	0.080
615.69	0.080
615.88	0.081
616.07	0.081
616.26	0.081
616.46	0.081
616.65	0.081
616.84	0.081
617.04	0.081
617.23	0.081
617.42	0.081
617.61	0.081
617.81	0.081
618.00	0.081
618.19	0.081
618.38	0.081
618.58	0.080
618.77	0.080
618.96	0.080
619.15	0.080
619.35	0.080
619.54	0.080
619.73	0.080
619.92	0.080
620.12	0.080
620.31	0.080
620.50	0.080
620.69	0.080
620.89	0.080
621.08	0.080
621.27	0.080
621.46	0.080
621.66	0.080
621.85	0.080
622.04	0.080
622.23	0.080
622.43	0.080
622.62	0.080
622.81	0.080
623.00	0.080
623.19	0.080
623.39	0.080
623.58	0.080
623.77	0.080
623.96	0.080
624.16	0.080
624.35	0.080
624.54	0.080
624.73	0.080
624.92	0.080
625.12	0.080
625.31	0.080
625.50	0.080
625.69	0.080
625.88	0.080
626.08	0.080
626.27	0.080
626.46	0.080
626.65	0.080
626.84	0.080
627.04	0.080
627.23	0.080
627.42	0.080
627.61	0.080
627.80	0.080
628.00	0.080
628.19	0.080
628.38	0.080
628.57	0.080
628.76	0.080
628.96	0.080
629.15	0.080
629.34	0.080
629.53	0.080
629.72	0.081
629.91	0.080
630.11	0.080
630.30	0.080
630.49	0.080
630.68	0.080
630.87	0.080
631.06	0.080
631.26	0.080
631.45	0.081
631.64	0.081
631.83	0.081
632.02	0.081
632.21	0.081
632.41	0.081
632.60	0.081
632.79	0.081
632.98	0.081
633.17	0.080
633.36	0.080
633.55	0.080
633.75	0.080
633.94	0.080
634.13	0.080
634.32	0.080
634.51	0.080
634.70	0.080
634.89	0.080
635.09	0.080
635.28	0.080
635.47	0.080
635.66	0.080
635.85	0.080
636.04	0.080
636.23	0.080
636.43	0.080
636.62	0.080
636.81	0.080
637.00	0.081
637.19	0.080
637.38	0.081
637.57	0.081
637.76	0.081
637.95	0.081
638.15	0.081
638.34	0.081
638.53	0.081
638.72	0.081
638.91	0.081
639.10	0.081
639.29	0.081
639.48	0.081
639.67	0.081
639.87	0.081
640.06	0.081
640.25	0.081
640.44	0.080
640.63	0.080
640.82	0.080
641.01	0.080
641.20	0.080
641.39	0.080
641.58	0.080
641.78	0.080
641.97	0.080
642.16	0.080
642.35	0.080
642.54	0.080
642.73	0.080
642.92	0.080
643.11	0.080
643.30	0.080
643.49	0.080
643.68	0.080
643.87	0.080
644.06	0.080
644.25	0.080
644.45	0.080
644.64	0.081
644.83	0.081
645.02	0.081
645.21	0.081
645.40	0.081
645.59	0.081
645.78	0.080
645.97	0.080
646.16	0.080
646.35	0.080
646.54	0.079
646.73	0.079
646.92	0.079
647.11	0.079
647.30	0.079
647.49	0.079
647.68	0.078
647.88	0.078
648.07	0.078
648.26	0.079
648.45	0.079
648.64	0.079
648.83	0.079
649.02	0.079
649.21	0.079
649.40	0.079
649.59	0.079
649.78	0.080
649.97	0.080
650.16	0.080
650.35	0.080
650.54	0.080
650.73	0.080
650.92	0.080
651.11	0.080
651.30	0.080
651.49	0.080
651.68	0.080
651.87	0.080
652.06	0.080
652.25	0.080
652.44	0.080
652.63	0.078
652.82	0.077
653.01	0.076
653.20	0.075
653.39	0.075
653.58	0.074
653.77	0.074
653.96	0.073
654.15	0.073
654.34	0.073
654.53	0.073
654.72	0.074
654.91	0.075
655.10	0.075
655.29	0.076
655.48	0.076
655.67	0.076
655.86	0.076
656.05	0.076
656.24	0.077
656.43	0.077
656.62	0.077
656.81	0.077
657.00	0.078
657.19	0.079
657.38	0.080
657.57	0.080
657.76	0.081
657.95	0.081
658.14	0.082
658.33	0.082
658.51	0.083
658.70	0.083
658.89	0.083
659.08	0.082
659.27	0.081
659.46	0.080
659.65	0.080
659.84	0.080
660.03	0.080
660.22	0.079
660.41	0.079
660.60	0.079
660.79	0.079
660.98	0.079
661.17	0.079
661.36	0.079
661.55	0.079
661.74	0.079
661.92	0.079
662.11	0.079
662.30	0.079
662.49	0.079
662.68	0.079
662.87	0.079
663.06	0.079
663.25	0.079
663.44	0.079
663.63	0.078
663.82	0.078
664.01	0.079
664.20	0.079
664.38	0.079
664.57	0.079
664.76	0.079
664.95	0.078
665.14	0.078
665.33	0.079
665.52	0.079
665.71	0.079
665.90	0.079
666.09	0.079
666.28	0.078
666.46	0.079
666.65	0.079
666.84	0.079
667.03	0.079
667.22	0.079
667.41	0.079
667.60	0.079
667.79	0.079
667.98	0.079
668.16	0.078
668.35	0.078
668.54	0.078
668.73	0.078
668.92	0.078
669.11	0.078
669.30	0.078
669.49	0.077
669.67	0.077
669.86	0.077
670.05	0.077
670.24	0.077
670.43	0.077
670.62	0.077
670.81	0.077
671.00	0.077
671.18	0.077
671.37	0.077
671.56	0.077
671.75	0.077
671.94	0.077
672.13	0.077
672.32	0.077
672.50	0.077
672.69	0.077
672.88	0.077
673.07	0.078
673.26	0.078
673.45	0.078
673.63	0.078
673.82	0.078
674.01	0.078
674.20	0.078
674.39	0.078
674.58	0.078
674.76	0.078
674.95	0.078
675.14	0.078
675.33	0.078
675.52	0.078
675.71	0.078
675.89	0.078
676.08	0.078
676.27	0.078
676.46	0.078
676.65	0.078
676.84	0.078
677.02	0.078
677.21	0.078
677.40	0.078
677.59	0.078
677.78	0.078
677.96	0.078
678.15	0.078
678.34	0.078
678.53	0.078
678.72	0.077
678.90	0.077
679.09	0.077
679.28	0.077
679.47	0.077
679.66	0.077
679.84	0.077
680.03	0.077
680.22	0.077
680.41	0.077
680.60	0.077
680.78	0.077
680.97	0.077
681.16	0.077
681.35	0.077
681.53	0.077
681.72	0.077
681.91	0.077
682.10	0.077
682.29	0.076
682.47	0.077
682.66	0.077
682.85	0.077
683.04	0.076
683.22	0.076
683.41	0.077
683.60	0.076
683.79	0.076
683.97	0.077
684.16	0.077
684.35	0.077
684.54	0.077
684.72	0.077
684.91	0.077
685.10	0.076
685.29	0.076
685.47	0.076
685.66	0.076
685.85	0.076
686.04	0.076
686.22	0.077
686.41	0.077
686.60	0.077
686.79	0.077
686.97	0.077
687.16	0.077
687.35	0.077
687.54	0.077
687.72	0.077
687.91	0.077
688.10	0.077
688.29	0.077
688.47	0.076
688.66	0.077
688.85	0.077
689.03	0.077
689.22	0.076
689.41	0.076
689.60	0.076
689.78	0.076
689.97	0.076
690.16	0.076
690.34	0.076
690.53	0.076
690.72	0.076
690.91	0.077
691.09	0.077
691.28	0.077
691.47	0.077
691.65	0.076
691.84	0.077
692.03	0.077
692.21	0.077
692.40	0.077
692.59	0.077
692.77	0.077
692.96	0.077
693.15	0.077
693.34	0.077
693.52	0.077
693.71	0.077
693.90	0.077
694.08	0.077
694.27	0.077
694.46	0.077
694.64	0.077
694.83	0.076
695.02	0.076
695.20	0.076
695.39	0.076
695.58	0.076
695.76	0.076
695.95	0.076
696.14	0.075
696.32	0.075
696.51	0.076
696.70	0.075
696.88	0.075
697.07	0.075
697.26	0.075
697.44	0.075
697.63	0.075
697.81	0.075
698.00	0.076
698.19	0.076
698.37	0.076
698.56	0.076
698.75	0.076
698.93	0.077
699.12	0.077
699.31	0.077
699.49	0.077
699.68	0.077
699.87	0.077
700.05	0.077
700.24	0.077
700.42	0.077
700.61	0.077
700.80	0.077
700.98	0.076
701.17	0.076
701.36	0.076
701.54	0.076
701.73	0.076
701.91	0.076
702.10	0.077
702.29	0.076
702.47	0.077
702.66	0.077
702.84	0.077
703.03	0.077
703.22	0.077
703.40	0.077
703.59	0.077
703.77	0.077
703.96	0.077
704.15	0.076
704.33	0.076
704.52	0.076
704.70	0.076
704.89	0.076
705.08	0.076
705.26	0.076
705.45	0.076
705.63	0.076
705.82	0.076
706.00	0.076
706.19	0.076
706.38	0.076
706.56	0.076
706.75	0.075
706.93	0.075
707.12	0.075
707.30	0.075
707.49	0.075
707.68	0.075
707.86	0.074
708.05	0.074
708.23	0.075
708.42	0.075
708.60	0.075
708.79	0.075
708.98	0.075
709.16	0.075
709.35	0.075
709.53	0.075
709.72	0.075
709.90	0.076
710.09	0.076
710.27	0.076
710.46	0.076
710.64	0.076
710.83	0.076
711.02	0.076
711.20	0.076
711.39	0.076
711.57	0.076
711.76	0.076
711.94	0.076
712.13	0.076
712.31	0.075
712.50	0.075
712.68	0.075
712.87	0.075
713.05	0.075
713.24	0.075
713.42	0.075
713.61	0.075
713.79	0.075
713.98	0.075
714.16	0.075
714.35	0.075
714.54	0.075
714.72	0.075
714.91	0.075
715.09	0.075
715.28	0.075
715.46	0.075
715.65	0.075
715.83	0.075
716.02	0.075
716.20	0.075
716.39	0.075
716.57	0.075
716.76	0.075
716.94	0.075
717.12	0.075
717.31	0.075
717.49	0.074
717.68	0.074
717.86	0.074
718.05	0.074
718.23	0.074
718.42	0.074
718.60	0.074
718.79	0.074
718.97	0.074
719.16	0.074
719.34	0.074
719.53	0.074
719.71	0.074
719.90	0.074
720.08	0.074
720.27	0.075
720.45	0.074
720.63	0.074
720.82	0.074
721.00	0.074
721.19	0.074
721.37	0.074
721.56	0.074
721.74	0.075
721.93	0.074
722.11	0.075
722.30	0.074
722.48	0.074
722.66	0.074
722.85	0.074
723.03	0.074
723.22	0.074
723.40	0.074
723.59	0.074
723.77	0.074
723.95	0.074
724.14	0.073
724.32	0.073
724.51	0.073
724.69	0.073
724.88	0.073
725.06	0.073
725.24	0.073
725.43	0.073
725.61	0.073
725.80	0.073
725.98	0.073
726.16	0.072
726.35	0.072
726.53	0.072
726.72	0.072
726.90	0.072
727.09	0.071
727.27	0.071
727.45	0.071
727.64	0.071
727.82	0.071
728.01	0.071
728.19	0.072
728.37	0.071
728.56	0.071
728.74	0.071
728.92	0.072
729.11	0.072
729.29	0.072
729.48	0.072
729.66	0.071
729.84	0.072
730.03	0.072
730.21	0.071
730.40	0.071
730.58	0.071
730.76	0.071
730.95	0.071
731.13	0.071
731.31	0.071
731.50	0.071
731.68	0.071
731.86	0.071
732.05	0.071
732.23	0.071
732.42	0.071
732.60	0.071
732.78	0.071
732.97	0.071
733.15	0.070
733.33	0.070
733.52	0.070
733.70	0.070
733.88	0.070
734.07	0.069
734.25	0.069
734.43	0.069
734.62	0.068
734.80	0.068
734.98	0.068
735.17	0.068
735.35	0.067
735.53	0.067
735.72	0.067
735.90	0.067
736.08	0.067
736.27	0.067
736.45	0.066
736.63	0.067
736.82	0.067
737.00	0.067
737.18	0.068
737.37	0.067
737.55	0.067
737.73	0.068
737.92	0.068
738.10	0.068
738.28	0.068
738.46	0.068
738.65	0.068
738.83	0.067
739.01	0.067
739.20	0.066
739.38	0.067
739.56	0.067
739.75	0.067
739.93	0.066
740.11	0.067
740.29	0.067
740.48	0.067
740.66	0.067
740.84	0.067
741.03	0.067
741.21	0.068
741.39	0.069
741.57	0.069
741.76	0.068
741.94	0.068
742.12	0.067
742.31	0.068
742.49	0.068
742.67	0.068
742.85	0.068
743.04	0.067
743.22	0.067
743.40	0.067
743.58	0.067
743.77	0.067
743.95	0.067
744.13	0.067
744.31	0.067
744.50	0.067
744.68	0.067
744.86	0.067
745.04	0.067
745.23	0.066
745.41	0.066
745.59	0.065
745.77	0.066
745.96	0.066
746.14	0.066
746.32	0.066
746.50	0.067
746.69	0.066
746.87	0.066
747.05	0.066
747.23	0.065
747.42	0.066
747.60	0.066
747.78	0.066
747.96	0.067
748.14	0.067
748.33	0.067
748.51	0.067
748.69	0.067
748.87	0.068
749.06	0.068
749.24	0.069
749.42	0.069
749.60	0.069
749.78	0.069
749.97	0.068
750.15	0.068
750.33	0.068
750.51	0.068
750.69	0.069
750.88	0.068
751.06	0.068
751.24	0.068
751.42	0.067
751.60	0.067
751.79	0.068
751.97	0.067
752.15	0.067
752.33	0.067
752.51	0.067
752.69	0.067
752.88	0.067
753.06	0.068
753.24	0.067
753.42	0.067
753.60	0.067
753.78	0.067
753.97	0.067
754.15	0.066
754.33	0.066
754.51	0.065
754.69	0.065
754.87	0.065
755.06	0.064
755.24	0.063
755.42	0.064
755.60	0.063
755.78	0.064
755.96	0.065
756.15	0.065
756.33	0.064
756.51	0.065
756.69	0.065
756.87	0.065
757.05	0.066
757.23	0.066
757.42	0.066
757.60	0.065
757.78	0.065
757.96	0.065
758.14	0.065
758.32	0.065
758.50	0.065
758.69	0.066
758.87	0.066
759.05	0.066
759.23	0.067
759.41	0.067
759.59	0.068
759.77	0.068
759.95	0.068
760.13	0.069
760.32	0.069
760.50	0.069
760.68	0.069
760.86	0.070
761.04	0.069
761.22	0.070
761.40	0.070
761.58	0.069
761.76	0.069
761.95	0.069
762.13	0.069
762.31	0.069
762.49	0.069
762.67	0.070
762.85	0.069
763.03	0.069
763.21	0.069
763.39	0.068
763.57	0.069
763.75	0.069
763.94	0.069
764.12	0.068
764.30	0.068
764.48	0.068
764.66	0.068
764.84	0.067
765.02	0.067
765.20	0.067
765.38	0.067
765.56	0.067
765.74	0.067
765.92	0.066
766.10	0.067
766.28	0.066
766.46	0.067
766.65	0.067
766.83	0.067
767.01	0.066
767.19	0.067
767.37	0.066
767.55	0.067
767.73	0.067
767.91	0.067
768.09	0.067
768.27	0.067
768.45	0.067
768.63	0.067
768.81	0.067
768.99	0.068
769.17	0.068
769.35	0.068
769.53	0.068
769.71	0.068
769.89	0.069
770.07	0.069
770.25	0.069
770.43	0.070
770.61	0.070
770.79	0.070
770.97	0.070
771.15	0.070
771.33	0.070
771.51	0.070
771.69	0.069
771.87	0.069
772.05	0.070
772.24	0.070
772.42	0.069
772.60	0.070
772.78	0.070
772.96	0.071
773.14	0.070
773.32	0.071
773.49	0.071
773.67	0.071
773.85	0.070
774.03	0.070
774.21	0.070
774.39	0.069
774.57	0.069
774.75	0.069
774.93	0.069
775.11	0.069
775.29	0.069
775.47	0.068
775.65	0.068
775.83	0.068
776.01	0.069
776.19	0.069
776.37	0.069
776.55	0.069
776.73	0.068
776.91	0.068
777.09	0.068
777.27	0.068
777.45	0.068
777.63	0.068
777.81	0.069
777.99	0.069
778.17	0.069
778.35	0.069
778.53	0.068
778.71	0.068
778.89	0.068
779.07	0.069
779.24	0.068
779.42	0.068
779.60	0.068
779.78	0.068
779.96	0.067
780.14	0.067
780.32	0.067
780.50	0.068
780.68	0.067
780.86	0.067
781.04	0.067
781.22	0.067
781.40	0.068
781.58	0.068
781.75	0.068
781.93	0.069
782.11	0.070
782.29	0.070
782.47	0.070
782.65	0.070
782.83	0.070
783.01	0.071
783.19	0.070
783.37	0.070
783.55	0.069
783.72	0.070
783.90	0.070
784.08	0.070
784.26	0.070
784.44	0.070
784.62	0.069
784.80	0.069
784.98	0.069
785.16	0.069
785.33	0.069
785.51	0.070
785.69	0.069
785.87	0.069
786.05	0.068
786.23	0.069
786.41	0.069
786.59	0.068
786.77	0.068
786.94	0.068
787.12	0.069
787.30	0.068
787.48	0.068
787.66	0.069
787.84	0.069
788.02	0.069
788.19	0.069
788.37	0.069
788.55	0.069
788.73	0.069
788.91	0.069
789.09	0.069
789.27	0.069
789.44	0.069
789.62	0.069
789.80	0.069
789.98	0.069
790.16	0.068
790.34	0.068
790.51	0.068
790.69	0.068
790.87	0.069
791.05	0.068
791.23	0.069
791.41	0.069
791.58	0.069
791.76	0.069
791.94	0.070
792.12	0.070
792.30	0.070
792.48	0.070
792.65	0.070
792.83	0.070
793.01	0.070
793.19	0.070
793.37	0.070
793.54	0.070
793.72	0.069
793.90	0.070
794.08	0.070
794.26	0.070
794.43	0.070
794.61	0.071
794.79	0.071
794.97	0.071
795.15	0.071
795.32	0.071
795.50	0.072
795.68	0.072
795.86	0.071
796.04	0.072
796.21	0.071
796.39	0.071
796.57	0.071
796.75	0.071
796.92	0.071
797.10	0.071
797.28	0.071
797.46	0.071
797.64	0.070
797.81	0.070
797.99	0.070
798.17	0.070
798.35	0.070
798.52	0.070
798.70	0.070
798.88	0.070
799.06	0.070
799.23	0.069
799.41	0.070
799.59	0.070
799.77	0.069
799.94	0.070
800.12	0.070
800.30	0.069
800.48	0.069
800.65	0.069
800.83	0.069
801.01	0.069
801.19	0.069
801.36	0.069
801.54	0.069
801.72	0.069
801.90	0.069
802.07	0.069
802.25	0.070
802.43	0.070
802.60	0.070
802.78	0.070
802.96	0.070
803.14	0.070
803.31	0.070
803.49	0.070
803.67	0.070
803.84	0.070
804.02	0.070
804.20	0.070
804.38	0.070
804.55	0.070
804.73	0.070
804.91	0.070
805.08	0.070
805.26	0.070
805.44	0.071
805.61	0.071
805.79	0.071
805.97	0.071
806.15	0.071
806.32	0.071
806.50	0.070
806.68	0.070
806.85	0.070
807.03	0.070
807.21	0.070
807.38	0.070
807.56	0.070
807.74	0.070
807.91	0.070
808.09	0.069
808.27	0.069
808.44	0.070
808.62	0.070
808.80	0.070
808.97	0.069
809.15	0.070
809.33	0.070
809.50	0.069
809.68	0.069
809.86	0.069
810.03	0.070
810.21	0.070
810.39	0.070
810.56	0.070
810.74	0.069
810.91	0.069
811.09	0.069
811.27	0.069
811.44	0.069
811.62	0.068
811.80	0.068
811.97	0.068
812.15	0.068
812.33	0.068
812.50	0.068
812.68	0.068
812.85	0.069
813.03	0.068
813.21	0.068
813.38	0.068
813.56	0.069
813.74	0.069
813.91	0.068
814.09	0.068
814.26	0.068
814.44	0.068
814.62	0.068
814.79	0.068
814.97	0.067
815.14	0.068
815.32	0.068
815.50	0.068
815.67	0.068
815.85	0.068
816.02	0.068
816.20	0.069
816.38	0.069
816.55	0.069
816.73	0.069
816.90	0.069
817.08	0.069
817.26	0.069
817.43	0.069
817.61	0.069
817.78	0.069
817.96	0.069
818.13	0.069
818.31	0.069
818.49	0.069
818.66	0.069
818.84	0.069
819.01	0.068
819.19	0.069
819.36	0.069
819.54	0.069
819.71	0.069
819.89	0.069
820.07	0.069
820.24	0.069
820.42	0.069
820.59	0.069
820.77	0.069
820.94	0.069
821.12	0.069
821.29	0.068
821.47	0.068
821.64	0.068
821.82	0.069
822.00	0.068
822.17	0.068
822.35	0.068
822.52	0.068
822.70	0.068
822.87	0.068
823.05	0.067
823.22	0.068
823.40	0.067
823.57	0.067
823.75	0.067
823.92	0.067
824.10	0.067
824.27	0.067
824.45	0.067
824.62	0.067
824.80	0.066
824.97	0.067
825.15	0.067
825.32	0.067
825.50	0.066
825.67	0.066
825.85	0.066
826.02	0.067
826.20	0.067
826.37	0.067
826.55	0.067
826.72	0.068
826.90	0.068
827.07	0.068
827.25	0.068
827.42	0.068
827.60	0.067
827.77	0.068
827.95	0.067
828.12	0.067
828.30	0.066
828.47	0.066
828.65	0.066
828.82	0.066
829.00	0.066
829.17	0.067
829.34	0.067
829.52	0.068
829.69	0.068
829.87	0.069
830.04	0.068
830.22	0.068
830.39	0.069
830.57	0.068
830.74	0.067
830.92	0.067
831.09	0.067
831.26	0.066
831.44	0.067
831.61	0.067
831.79	0.067
831.96	0.067
832.14	0.067
832.31	0.066
832.49	0.066
832.66	0.066
832.83	0.068
833.01	0.067
833.18	0.068
833.36	0.066
833.53	0.064
833.70	0.064
833.88	0.063
834.05	0.062
834.23	0.063
834.40	0.062
834.58	0.061
834.75	0.061
834.92	0.061
835.10	0.060
835.27	0.059
835.45	0.059
835.62	0.059
835.79	0.059
835.97	0.059
836.14	0.059
836.32	0.061
836.49	0.060
836.66	0.058
836.84	0.058
837.01	0.057
837.18	0.059
837.36	0.059
837.53	0.060
837.71	0.059
837.88	0.058
838.05	0.055
838.23	0.054
838.40	0.055
838.58	0.054
838.75	0.053
838.92	0.053
839.10	0.052
839.27	0.053
839.44	0.053
839.62	0.054
839.79	0.054
839.96	0.058
840.14	0.059
840.31	0.059
840.48	0.060
840.66	0.061
840.83	0.061
841.01	0.063
841.18	0.063
841.35	0.061
841.53	0.059
841.70	0.059
841.87	0.057
842.05	0.056
842.22	0.056
842.39	0.057
842.57	0.055
842.74	0.057
842.91	0.057
843.09	0.057
843.26	0.059
843.43	0.061
843.60	0.061
843.78	0.063
843.95	0.062
844.12	0.063
844.30	0.061
844.47	0.062
844.64	0.063
844.82	0.062
844.99	0.062
845.16	0.059
845.34	0.059
845.51	0.061
845.68	0.060
845.85	0.061
846.03	0.060
846.20	0.061
846.37	0.062
846.55	0.061
846.72	0.062
846.89	0.063
847.06	0.063
847.24	0.063
847.41	0.061
847.58	0.060
847.76	0.061
847.93	0.062
848.10	0.061
848.27	0.060
848.45	0.063
848.62	0.062
848.79	0.058
848.97	0.060
849.14	0.059
849.31	0.058
849.48	0.059
849.66	0.057
849.83	0.056
850.00	0.058
850.17	0.057
850.35	0.052
850.52	0.050
850.69	0.053
850.86	0.050
851.04	0.051
851.21	0.053
851.38	0.051
851.55	0.050
851.72	0.051
851.90	0.052
852.07	0.052
852.24	0.054
852.41	0.053
852.59	0.053
852.76	0.054
852.93	0.055
853.10	0.056
853.28	0.059
853.45	0.059
853.62	0.056
853.79	0.054
853.96	0.054
854.14	0.054
854.31	0.056
854.48	0.056
854.65	0.055
854.82	0.057
855.00	0.055
855.17	0.053
855.34	0.057
855.51	0.059
855.68	0.060
855.86	0.061
856.03	0.056
856.20	0.053
856.37	0.052
856.54	0.051
856.72	0.049
856.89	0.049
857.06	0.047
857.23	0.045
857.40	0.044
857.57	0.043
857.75	0.045
857.92	0.053
858.09	0.053
858.26	0.054
858.43	0.056
858.60	0.059
858.78	0.061
858.95	0.063
859.12	0.063
859.29	0.062
859.46	0.060
859.63	0.061
859.81	0.058
859.98	0.061
860.15	0.062
860.32	0.063
860.49	0.057
860.66	0.056
860.83	0.057
861.01	0.057
861.18	0.058
861.35	0.062
861.52	0.058
861.69	0.060
861.86	0.060
862.03	0.058
862.21	0.057
862.38	0.062
862.55	0.063
862.72	0.062
862.89	0.063
863.06	0.062
863.23	0.062
863.40	0.060
863.58	0.055
863.75	0.052
863.92	0.052
864.09	0.053
864.26	0.053
864.43	0.052
864.60	0.050
864.77	0.048
864.94	0.053
865.11	0.055
865.29	0.055
865.46	0.058
865.63	0.061
865.80	0.058
865.97	0.058
866.14	0.058
866.31	0.056
866.48	0.060
866.65	0.062
866.82	0.062
866.99	0.058
867.16	0.057
867.34	0.057
867.51	0.058
867.68	0.060
867.85	0.057
868.02	0.056
868.19	0.057
868.36	0.055
868.53	0.050
868.70	0.046
868.87	0.041
869.04	0.046
869.21	0.048
869.38	0.044
869.55	0.043
869.72	0.046
869.89	0.048
870.06	0.043
870.24	0.041
870.41	0.042
870.58	0.041
870.75	0.048
870.92	0.048
871.09	0.048
871.26	0.052
871.43	0.057
871.60	0.058
871.77	0.053
871.94	0.059
872.11	0.060
872.28	0.057
872.45	0.058
872.62	0.055
872.79	0.051
872.96	0.052
873.13	0.046
873.30	0.045
873.47	0.047
873.64	0.051
873.81	0.049
873.98	0.053
874.15	0.059
874.32	0.058
874.49	0.065
874.66	0.065
874.83	0.067
875.00	0.065
875.17	0.063
875.34	0.062
875.51	0.063
875.68	0.065
875.85	0.061
876.02	0.063
876.19	0.065
876.36	0.062
876.53	0.058
876.70	0.060
876.87	0.062
877.04	0.064
877.21	0.065
877.38	0.061
877.55	0.063
877.72	0.068
877.89	0.063
878.06	0.057
878.23	0.054
878.39	0.058
878.56	0.055
878.73	0.060
878.90	0.059
879.07	0.053
879.24	0.054
879.41	0.053
879.58	0.053
879.75	0.051
879.92	0.053
880.09	0.052
880.26	0.052
880.43	0.046
880.60	0.042
880.77	0.043
880.94	0.048
881.11	0.054
881.27	0.056
881.44	0.052
881.61	0.054
881.78	0.052
881.95	0.054
882.12	0.057
882.29	0.065
882.46	0.064
882.63	0.067
882.80	0.066
882.97	0.059
883.14	0.048
883.30	0.045
883.47	0.046
883.64	0.046
883.81	0.049
883.98	0.045
884.15	0.041
884.32	0.043
884.49	0.041
884.66	0.039
884.82	0.039
884.99	0.041
885.16	0.038
885.33	0.036
885.50	0.038
885.67	0.037
885.84	0.045
886.01	0.042
886.17	0.044
886.34	0.043
886.51	0.049
886.68	0.055
886.85	0.064
887.02	0.075
887.19	0.080
887.36	0.080
887.52	0.077
887.69	0.076
887.86	0.088
888.03	0.090
888.20	0.088
888.37	0.071
888.54	0.068
888.70	0.064
888.87	0.066
889.04	0.069
889.21	0.067
889.38	0.078
889.55	0.060
889.71	0.111
889.88	0.094
890.05	-0.007
890.22	0.159
890.39	-0.026
>>>>>End Processed Spectral Data<<<<<
