SpectraSuite Data File
++++++++++++++++++++++++++++++++++++
Date: Mon Jun 15 07:43:31 PDT 2015
User: introlabs
Dark Spectrum Present: Yes
Reference Spectrum Present: Yes
Number of Sampled Component Spectra: 1
Spectrometers: USB4H08886
Integration Time (usec): 44366 (USB4H08886)
Spectra Averaged: 20 (USB4H08886)
Boxcar Smoothing: 5 (USB4H08886)
Correct for Electrical Dark: Yes (USB4H08886)
Strobe/Lamp Enabled: No (USB4H08886)
Correct for Detector Non-linearity: Yes (USB4H08886)
Correct for Stray Light: Yes (USB4H08886)
Number of Pixels in Processed Spectrum: 3648
>>>>>Begin Processed Spectral Data<<<<<
178.14	0.047
178.36	0.047
178.57	0.047
178.79	1.061
179.01	-0.947
179.22	0.043
179.44	-0.143
179.65	0.395
179.87	0.012
180.08	0.357
180.30	0.316
180.52	0.385
180.73	0.188
180.95	0.177
181.16	0.091
181.38	0.078
181.59	0.079
181.81	0.062
182.03	0.065
182.24	0.068
182.46	0.058
182.67	0.049
182.89	0.049
183.10	0.050
183.32	0.047
183.54	0.035
183.75	0.035
183.97	0.032
184.18	0.028
184.40	0.021
184.61	0.025
184.83	0.019
185.04	0.016
185.26	0.011
185.48	0.012
185.69	0.007
185.91	0.013
186.12	0.011
186.34	0.021
186.55	0.019
186.77	0.026
186.98	0.024
187.20	0.019
187.42	0.025
187.63	0.023
187.85	0.017
188.06	0.018
188.28	0.020
188.49	0.023
188.71	0.015
188.92	0.020
189.14	0.017
189.36	0.018
189.57	0.023
189.79	0.012
190.00	0.011
190.22	0.013
190.43	0.012
190.65	0.006
190.86	0.012
191.08	0.009
191.29	0.009
191.51	0.004
191.72	0.002
191.94	0.007
192.16	0.020
192.37	0.022
192.59	0.027
192.80	0.027
193.02	0.027
193.23	0.027
193.45	0.031
193.66	0.034
193.88	0.043
194.09	0.046
194.31	0.040
194.52	0.036
194.74	0.040
194.95	0.037
195.17	0.038
195.38	0.038
195.60	0.024
195.81	0.026
196.03	0.019
196.25	0.024
196.46	0.016
196.68	0.016
196.89	0.017
197.11	0.016
197.32	0.017
197.54	0.012
197.75	0.029
197.97	0.030
198.18	0.018
198.40	0.025
198.61	0.014
198.83	0.011
199.04	0.019
199.26	0.012
199.47	0.004
199.69	0.010
199.90	0.023
200.12	0.009
200.33	0.011
200.55	0.016
200.76	0.007
200.98	0.003
201.19	0.007
201.41	0.001
201.62	0.011
201.84	0.016
202.05	0.010
202.27	0.001
202.48	0.002
202.70	0.008
202.91	0.005
203.13	0.004
203.34	0.002
203.56	0.003
203.77	0.003
203.99	-0.009
204.20	-0.011
204.42	-0.011
204.63	-0.011
204.85	-0.012
205.06	-0.016
205.28	-0.007
205.49	-0.001
205.71	0.012
205.92	0.010
206.14	0.012
206.35	0.021
206.56	0.026
206.78	0.026
206.99	0.036
207.21	0.039
207.42	0.042
207.64	0.041
207.85	0.037
208.07	0.032
208.28	0.035
208.50	0.039
208.71	0.040
208.93	0.041
209.14	0.038
209.36	0.036
209.57	0.038
209.79	0.044
210.00	0.050
210.22	0.056
210.43	0.052
210.64	0.051
210.86	0.041
211.07	0.036
211.29	0.033
211.50	0.037
211.72	0.027
211.93	0.027
212.15	0.020
212.36	0.008
212.58	0.008
212.79	0.011
213.01	0.008
213.22	0.014
213.43	0.018
213.65	0.015
213.86	0.009
214.08	0.016
214.29	0.013
214.51	0.011
214.72	0.011
214.94	0.009
215.15	0.015
215.36	0.015
215.58	0.013
215.79	0.012
216.01	0.016
216.22	0.027
216.44	0.019
216.65	0.019
216.87	0.027
217.08	0.026
217.29	0.030
217.51	0.028
217.72	0.030
217.94	0.035
218.15	0.039
218.37	0.031
218.58	0.026
218.80	0.031
219.01	0.026
219.22	0.021
219.44	0.024
219.65	0.022
219.87	0.019
220.08	0.019
220.30	0.010
220.51	0.004
220.72	0.005
220.94	-0.000
221.15	-0.002
221.37	-0.001
221.58	-0.003
221.79	-0.001
222.01	-0.010
222.22	-0.011
222.44	-0.014
222.65	-0.013
222.87	-0.013
223.08	-0.013
223.29	-0.010
223.51	-0.010
223.72	-0.008
223.94	-0.007
224.15	-0.006
224.36	0.002
224.58	0.003
224.79	0.005
225.01	0.002
225.22	0.001
225.44	0.005
225.65	0.008
225.86	0.011
226.08	0.012
226.29	0.013
226.51	0.012
226.72	0.010
226.93	0.014
227.15	0.011
227.36	0.014
227.58	0.017
227.79	0.021
228.00	0.016
228.22	0.009
228.43	0.007
228.65	0.008
228.86	0.010
229.07	0.013
229.29	0.009
229.50	0.010
229.72	0.010
229.93	0.008
230.14	0.005
230.36	0.009
230.57	0.010
230.78	0.010
231.00	0.007
231.21	0.004
231.43	0.005
231.64	0.008
231.85	0.010
232.07	0.009
232.28	0.012
232.50	0.008
232.71	0.006
232.92	0.007
233.14	0.006
233.35	0.007
233.56	0.006
233.78	0.005
233.99	0.003
234.21	0.002
234.42	0.005
234.63	0.003
234.85	0.004
235.06	0.005
235.27	0.007
235.49	0.010
235.70	0.008
235.91	0.008
236.13	0.008
236.34	0.006
236.56	0.006
236.77	0.004
236.98	0.005
237.20	0.003
237.41	0.004
237.62	0.003
237.84	0.001
238.05	0.003
238.26	0.002
238.48	0.002
238.69	0.004
238.91	0.003
239.12	0.004
239.33	0.004
239.55	0.005
239.76	0.005
239.97	0.005
240.19	0.006
240.40	0.005
240.61	0.005
240.83	0.005
241.04	0.005
241.25	0.006
241.47	0.006
241.68	0.007
241.89	0.007
242.11	0.007
242.32	0.007
242.53	0.006
242.75	0.007
242.96	0.008
243.17	0.008
243.39	0.009
243.60	0.009
243.81	0.008
244.03	0.008
244.24	0.008
244.45	0.009
244.67	0.009
244.88	0.010
245.09	0.010
245.31	0.009
245.52	0.009
245.73	0.009
245.95	0.010
246.16	0.010
246.37	0.010
246.59	0.010
246.80	0.010
247.01	0.010
247.23	0.010
247.44	0.009
247.65	0.009
247.87	0.010
248.08	0.009
248.29	0.009
248.51	0.009
248.72	0.009
248.93	0.009
249.15	0.009
249.36	0.009
249.57	0.008
249.78	0.009
250.00	0.009
250.21	0.009
250.42	0.010
250.64	0.010
250.85	0.010
251.06	0.010
251.28	0.010
251.49	0.010
251.70	0.010
251.92	0.010
252.13	0.011
252.34	0.011
252.55	0.010
252.77	0.010
252.98	0.010
253.19	0.010
253.41	0.010
253.62	0.010
253.83	0.010
254.05	0.010
254.26	0.010
254.47	0.009
254.68	0.009
254.90	0.009
255.11	0.010
255.32	0.010
255.54	0.009
255.75	0.010
255.96	0.010
256.17	0.010
256.39	0.009
256.60	0.010
256.81	0.010
257.03	0.010
257.24	0.010
257.45	0.010
257.66	0.010
257.88	0.010
258.09	0.009
258.30	0.009
258.51	0.009
258.73	0.009
258.94	0.009
259.15	0.009
259.37	0.009
259.58	0.008
259.79	0.008
260.00	0.008
260.22	0.009
260.43	0.009
260.64	0.008
260.85	0.008
261.07	0.008
261.28	0.008
261.49	0.008
261.71	0.008
261.92	0.008
262.13	0.008
262.34	0.008
262.56	0.008
262.77	0.008
262.98	0.008
263.19	0.008
263.41	0.008
263.62	0.008
263.83	0.008
264.04	0.008
264.26	0.007
264.47	0.007
264.68	0.007
264.89	0.007
265.11	0.007
265.32	0.007
265.53	0.007
265.74	0.007
265.96	0.007
266.17	0.007
266.38	0.007
266.59	0.007
266.81	0.007
267.02	0.007
267.23	0.007
267.44	0.007
267.65	0.007
267.87	0.007
268.08	0.006
268.29	0.007
268.50	0.007
268.72	0.007
268.93	0.007
269.14	0.006
269.35	0.006
269.57	0.006
269.78	0.007
269.99	0.006
270.20	0.006
270.41	0.006
270.63	0.006
270.84	0.005
271.05	0.005
271.26	0.005
271.48	0.005
271.69	0.005
271.90	0.005
272.11	0.004
272.32	0.004
272.54	0.004
272.75	0.004
272.96	0.004
273.17	0.004
273.39	0.005
273.60	0.005
273.81	0.004
274.02	0.004
274.23	0.004
274.45	0.004
274.66	0.004
274.87	0.004
275.08	0.004
275.29	0.004
275.51	0.004
275.72	0.004
275.93	0.003
276.14	0.003
276.35	0.004
276.57	0.004
276.78	0.004
276.99	0.004
277.20	0.004
277.41	0.004
277.63	0.004
277.84	0.004
278.05	0.004
278.26	0.004
278.47	0.004
278.69	0.004
278.90	0.004
279.11	0.004
279.32	0.004
279.53	0.004
279.74	0.004
279.96	0.005
280.17	0.005
280.38	0.005
280.59	0.005
280.80	0.005
281.02	0.005
281.23	0.005
281.44	0.005
281.65	0.005
281.86	0.005
282.07	0.005
282.29	0.005
282.50	0.005
282.71	0.005
282.92	0.005
283.13	0.005
283.35	0.005
283.56	0.005
283.77	0.005
283.98	0.005
284.19	0.005
284.40	0.005
284.62	0.005
284.83	0.005
285.04	0.006
285.25	0.006
285.46	0.006
285.67	0.006
285.88	0.007
286.10	0.007
286.31	0.007
286.52	0.007
286.73	0.007
286.94	0.007
287.15	0.008
287.37	0.008
287.58	0.008
287.79	0.008
288.00	0.008
288.21	0.008
288.42	0.009
288.63	0.009
288.85	0.009
289.06	0.009
289.27	0.009
289.48	0.009
289.69	0.009
289.90	0.009
290.11	0.010
290.33	0.010
290.54	0.010
290.75	0.010
290.96	0.010
291.17	0.010
291.38	0.010
291.59	0.010
291.81	0.010
292.02	0.010
292.23	0.010
292.44	0.010
292.65	0.010
292.86	0.010
293.07	0.010
293.28	0.010
293.50	0.011
293.71	0.011
293.92	0.011
294.13	0.011
294.34	0.011
294.55	0.011
294.76	0.011
294.97	0.011
295.19	0.011
295.40	0.011
295.61	0.010
295.82	0.010
296.03	0.010
296.24	0.010
296.45	0.010
296.66	0.010
296.87	0.010
297.09	0.010
297.30	0.010
297.51	0.010
297.72	0.010
297.93	0.010
298.14	0.010
298.35	0.011
298.56	0.010
298.77	0.010
298.99	0.010
299.20	0.011
299.41	0.010
299.62	0.010
299.83	0.010
300.04	0.010
300.25	0.010
300.46	0.010
300.67	0.010
300.88	0.011
301.10	0.011
301.31	0.010
301.52	0.010
301.73	0.010
301.94	0.010
302.15	0.010
302.36	0.010
302.57	0.010
302.78	0.010
302.99	0.010
303.20	0.010
303.41	0.010
303.63	0.010
303.84	0.010
304.05	0.010
304.26	0.010
304.47	0.010
304.68	0.010
304.89	0.010
305.10	0.010
305.31	0.010
305.52	0.010
305.73	0.010
305.94	0.010
306.15	0.010
306.37	0.010
306.58	0.010
306.79	0.010
307.00	0.010
307.21	0.010
307.42	0.010
307.63	0.010
307.84	0.010
308.05	0.010
308.26	0.010
308.47	0.010
308.68	0.010
308.89	0.010
309.10	0.010
309.31	0.010
309.52	0.010
309.73	0.010
309.95	0.010
310.16	0.010
310.37	0.010
310.58	0.010
310.79	0.010
311.00	0.010
311.21	0.010
311.42	0.010
311.63	0.010
311.84	0.010
312.05	0.010
312.26	0.010
312.47	0.010
312.68	0.010
312.89	0.010
313.10	0.010
313.31	0.010
313.52	0.010
313.73	0.010
313.94	0.010
314.15	0.010
314.36	0.010
314.57	0.010
314.78	0.010
314.99	0.010
315.21	0.010
315.42	0.010
315.63	0.010
315.84	0.010
316.05	0.010
316.26	0.010
316.47	0.010
316.68	0.010
316.89	0.010
317.10	0.010
317.31	0.010
317.52	0.010
317.73	0.010
317.94	0.010
318.15	0.010
318.36	0.010
318.57	0.010
318.78	0.010
318.99	0.010
319.20	0.010
319.41	0.010
319.62	0.010
319.83	0.010
320.04	0.010
320.25	0.010
320.46	0.010
320.67	0.010
320.88	0.010
321.09	0.010
321.30	0.010
321.51	0.009
321.72	0.009
321.93	0.009
322.14	0.009
322.35	0.009
322.56	0.009
322.77	0.009
322.98	0.009
323.19	0.009
323.40	0.009
323.61	0.009
323.82	0.009
324.03	0.009
324.24	0.009
324.45	0.009
324.66	0.009
324.87	0.009
325.08	0.009
325.29	0.009
325.50	0.009
325.71	0.009
325.92	0.010
326.13	0.010
326.34	0.009
326.55	0.009
326.76	0.009
326.97	0.009
327.18	0.009
327.39	0.009
327.60	0.009
327.80	0.009
328.01	0.009
328.22	0.009
328.43	0.009
328.64	0.009
328.85	0.009
329.06	0.009
329.27	0.009
329.48	0.009
329.69	0.009
329.90	0.009
330.11	0.009
330.32	0.009
330.53	0.009
330.74	0.009
330.95	0.009
331.16	0.009
331.37	0.009
331.58	0.009
331.79	0.009
332.00	0.009
332.21	0.009
332.42	0.009
332.63	0.009
332.83	0.009
333.04	0.009
333.25	0.009
333.46	0.009
333.67	0.009
333.88	0.009
334.09	0.009
334.30	0.009
334.51	0.009
334.72	0.009
334.93	0.009
335.14	0.009
335.35	0.009
335.56	0.009
335.77	0.009
335.98	0.008
336.18	0.008
336.39	0.008
336.60	0.009
336.81	0.008
337.02	0.008
337.23	0.008
337.44	0.008
337.65	0.008
337.86	0.008
338.07	0.008
338.28	0.009
338.49	0.009
338.70	0.009
338.91	0.008
339.11	0.008
339.32	0.008
339.53	0.008
339.74	0.009
339.95	0.008
340.16	0.009
340.37	0.008
340.58	0.008
340.79	0.008
341.00	0.008
341.21	0.008
341.41	0.008
341.62	0.008
341.83	0.008
342.04	0.008
342.25	0.008
342.46	0.008
342.67	0.008
342.88	0.008
343.09	0.008
343.30	0.008
343.50	0.008
343.71	0.008
343.92	0.008
344.13	0.008
344.34	0.008
344.55	0.008
344.76	0.008
344.97	0.008
345.18	0.008
345.38	0.008
345.59	0.008
345.80	0.008
346.01	0.008
346.22	0.008
346.43	0.008
346.64	0.008
346.85	0.008
347.06	0.008
347.26	0.008
347.47	0.008
347.68	0.008
347.89	0.008
348.10	0.008
348.31	0.007
348.52	0.007
348.73	0.007
348.93	0.007
349.14	0.007
349.35	0.007
349.56	0.007
349.77	0.007
349.98	0.007
350.19	0.007
350.39	0.007
350.60	0.007
350.81	0.007
351.02	0.007
351.23	0.007
351.44	0.007
351.65	0.007
351.86	0.007
352.06	0.007
352.27	0.007
352.48	0.007
352.69	0.007
352.90	0.007
353.11	0.007
353.31	0.007
353.52	0.007
353.73	0.007
353.94	0.007
354.15	0.007
354.36	0.007
354.57	0.007
354.77	0.007
354.98	0.007
355.19	0.007
355.40	0.007
355.61	0.007
355.82	0.007
356.02	0.007
356.23	0.007
356.44	0.007
356.65	0.007
356.86	0.007
357.07	0.007
357.27	0.007
357.48	0.007
357.69	0.007
357.90	0.007
358.11	0.007
358.32	0.007
358.52	0.007
358.73	0.006
358.94	0.006
359.15	0.007
359.36	0.006
359.56	0.006
359.77	0.006
359.98	0.006
360.19	0.006
360.40	0.006
360.61	0.007
360.81	0.007
361.02	0.007
361.23	0.007
361.44	0.007
361.65	0.006
361.85	0.006
362.06	0.006
362.27	0.007
362.48	0.007
362.69	0.007
362.89	0.007
363.10	0.007
363.31	0.006
363.52	0.006
363.73	0.007
363.93	0.007
364.14	0.007
364.35	0.007
364.56	0.006
364.77	0.006
364.97	0.006
365.18	0.006
365.39	0.006
365.60	0.006
365.81	0.006
366.01	0.006
366.22	0.006
366.43	0.006
366.64	0.006
366.84	0.006
367.05	0.006
367.26	0.006
367.47	0.006
367.68	0.006
367.88	0.006
368.09	0.006
368.30	0.007
368.51	0.006
368.71	0.006
368.92	0.006
369.13	0.006
369.34	0.006
369.55	0.006
369.75	0.006
369.96	0.006
370.17	0.006
370.38	0.006
370.58	0.006
370.79	0.006
371.00	0.006
371.21	0.006
371.41	0.006
371.62	0.006
371.83	0.006
372.04	0.006
372.24	0.006
372.45	0.006
372.66	0.006
372.87	0.006
373.07	0.006
373.28	0.006
373.49	0.006
373.70	0.006
373.90	0.006
374.11	0.006
374.32	0.006
374.53	0.006
374.73	0.005
374.94	0.006
375.15	0.006
375.36	0.006
375.56	0.006
375.77	0.006
375.98	0.006
376.19	0.006
376.39	0.006
376.60	0.006
376.81	0.006
377.02	0.006
377.22	0.006
377.43	0.006
377.64	0.006
377.84	0.006
378.05	0.006
378.26	0.006
378.47	0.006
378.67	0.006
378.88	0.006
379.09	0.006
379.30	0.006
379.50	0.005
379.71	0.005
379.92	0.006
380.12	0.005
380.33	0.005
380.54	0.005
380.75	0.005
380.95	0.005
381.16	0.005
381.37	0.005
381.57	0.005
381.78	0.005
381.99	0.005
382.20	0.005
382.40	0.005
382.61	0.005
382.82	0.005
383.02	0.005
383.23	0.005
383.44	0.006
383.64	0.006
383.85	0.006
384.06	0.006
384.27	0.006
384.47	0.006
384.68	0.006
384.89	0.005
385.09	0.005
385.30	0.005
385.51	0.005
385.71	0.005
385.92	0.005
386.13	0.005
386.33	0.005
386.54	0.005
386.75	0.005
386.95	0.005
387.16	0.005
387.37	0.005
387.58	0.006
387.78	0.006
387.99	0.006
388.20	0.006
388.40	0.006
388.61	0.005
388.82	0.005
389.02	0.005
389.23	0.005
389.44	0.005
389.64	0.005
389.85	0.005
390.06	0.005
390.26	0.005
390.47	0.005
390.68	0.005
390.88	0.005
391.09	0.005
391.30	0.005
391.50	0.005
391.71	0.005
391.92	0.005
392.12	0.005
392.33	0.005
392.53	0.005
392.74	0.005
392.95	0.005
393.15	0.005
393.36	0.005
393.57	0.005
393.77	0.005
393.98	0.005
394.19	0.005
394.39	0.005
394.60	0.005
394.81	0.005
395.01	0.005
395.22	0.005
395.43	0.005
395.63	0.005
395.84	0.005
396.04	0.005
396.25	0.005
396.46	0.005
396.66	0.005
396.87	0.005
397.08	0.005
397.28	0.005
397.49	0.005
397.69	0.005
397.90	0.005
398.11	0.005
398.31	0.005
398.52	0.005
398.73	0.005
398.93	0.005
399.14	0.005
399.34	0.005
399.55	0.005
399.76	0.005
399.96	0.005
400.17	0.005
400.37	0.005
400.58	0.005
400.79	0.005
400.99	0.005
401.20	0.005
401.41	0.005
401.61	0.005
401.82	0.005
402.02	0.005
402.23	0.005
402.44	0.005
402.64	0.005
402.85	0.005
403.05	0.005
403.26	0.005
403.47	0.005
403.67	0.005
403.88	0.005
404.08	0.005
404.29	0.005
404.50	0.005
404.70	0.005
404.91	0.005
405.11	0.005
405.32	0.005
405.52	0.005
405.73	0.004
405.94	0.004
406.14	0.004
406.35	0.004
406.55	0.004
406.76	0.005
406.97	0.004
407.17	0.004
407.38	0.005
407.58	0.005
407.79	0.004
407.99	0.004
408.20	0.005
408.41	0.005
408.61	0.005
408.82	0.005
409.02	0.005
409.23	0.005
409.43	0.005
409.64	0.005
409.84	0.005
410.05	0.005
410.26	0.005
410.46	0.005
410.67	0.004
410.87	0.004
411.08	0.005
411.28	0.005
411.49	0.005
411.69	0.005
411.90	0.005
412.11	0.005
412.31	0.005
412.52	0.005
412.72	0.005
412.93	0.005
413.13	0.005
413.34	0.005
413.54	0.004
413.75	0.004
413.95	0.004
414.16	0.004
414.37	0.004
414.57	0.004
414.78	0.004
414.98	0.004
415.19	0.004
415.39	0.004
415.60	0.004
415.80	0.004
416.01	0.004
416.21	0.004
416.42	0.004
416.62	0.004
416.83	0.004
417.03	0.004
417.24	0.004
417.44	0.004
417.65	0.004
417.86	0.004
418.06	0.004
418.27	0.004
418.47	0.004
418.68	0.004
418.88	0.004
419.09	0.004
419.29	0.004
419.50	0.004
419.70	0.004
419.91	0.004
420.11	0.004
420.32	0.004
420.52	0.004
420.73	0.004
420.93	0.004
421.14	0.004
421.34	0.004
421.55	0.004
421.75	0.004
421.96	0.004
422.16	0.004
422.37	0.004
422.57	0.004
422.78	0.004
422.98	0.004
423.19	0.004
423.39	0.004
423.60	0.004
423.80	0.004
424.01	0.004
424.21	0.004
424.42	0.004
424.62	0.004
424.83	0.004
425.03	0.004
425.23	0.004
425.44	0.004
425.64	0.004
425.85	0.004
426.05	0.004
426.26	0.004
426.46	0.004
426.67	0.004
426.87	0.004
427.08	0.004
427.28	0.004
427.49	0.004
427.69	0.004
427.90	0.004
428.10	0.004
428.31	0.004
428.51	0.004
428.71	0.004
428.92	0.004
429.12	0.004
429.33	0.004
429.53	0.004
429.74	0.004
429.94	0.004
430.15	0.004
430.35	0.004
430.56	0.004
430.76	0.004
430.96	0.004
431.17	0.004
431.37	0.004
431.58	0.004
431.78	0.004
431.99	0.004
432.19	0.004
432.40	0.004
432.60	0.004
432.80	0.004
433.01	0.004
433.21	0.004
433.42	0.004
433.62	0.004
433.83	0.004
434.03	0.004
434.23	0.004
434.44	0.004
434.64	0.004
434.85	0.004
435.05	0.004
435.26	0.004
435.46	0.004
435.66	0.004
435.87	0.004
436.07	0.004
436.28	0.004
436.48	0.004
436.69	0.004
436.89	0.004
437.09	0.004
437.30	0.003
437.50	0.003
437.71	0.003
437.91	0.003
438.11	0.003
438.32	0.003
438.52	0.003
438.73	0.003
438.93	0.003
439.13	0.003
439.34	0.003
439.54	0.004
439.75	0.004
439.95	0.004
440.15	0.004
440.36	0.004
440.56	0.004
440.77	0.004
440.97	0.004
441.17	0.004
441.38	0.004
441.58	0.004
441.79	0.003
441.99	0.004
442.19	0.003
442.40	0.004
442.60	0.003
442.81	0.003
443.01	0.003
443.21	0.003
443.42	0.004
443.62	0.004
443.82	0.004
444.03	0.004
444.23	0.004
444.44	0.004
444.64	0.004
444.84	0.004
445.05	0.004
445.25	0.004
445.45	0.004
445.66	0.004
445.86	0.004
446.06	0.004
446.27	0.004
446.47	0.004
446.68	0.004
446.88	0.004
447.08	0.004
447.29	0.004
447.49	0.004
447.69	0.004
447.90	0.004
448.10	0.003
448.30	0.003
448.51	0.003
448.71	0.003
448.91	0.003
449.12	0.003
449.32	0.003
449.52	0.003
449.73	0.003
449.93	0.003
450.14	0.003
450.34	0.003
450.54	0.003
450.75	0.003
450.95	0.003
451.15	0.004
451.36	0.003
451.56	0.004
451.76	0.004
451.97	0.004
452.17	0.004
452.37	0.003
452.58	0.003
452.78	0.003
452.98	0.003
453.19	0.003
453.39	0.003
453.59	0.003
453.79	0.003
454.00	0.003
454.20	0.003
454.40	0.003
454.61	0.003
454.81	0.003
455.01	0.003
455.22	0.003
455.42	0.003
455.62	0.003
455.83	0.003
456.03	0.003
456.23	0.003
456.44	0.003
456.64	0.004
456.84	0.004
457.04	0.004
457.25	0.004
457.45	0.004
457.65	0.004
457.86	0.004
458.06	0.004
458.26	0.003
458.47	0.004
458.67	0.003
458.87	0.003
459.07	0.003
459.28	0.003
459.48	0.003
459.68	0.003
459.89	0.003
460.09	0.003
460.29	0.003
460.49	0.003
460.70	0.003
460.90	0.003
461.10	0.003
461.31	0.003
461.51	0.003
461.71	0.004
461.91	0.003
462.12	0.003
462.32	0.003
462.52	0.003
462.72	0.003
462.93	0.003
463.13	0.003
463.33	0.003
463.53	0.003
463.74	0.003
463.94	0.003
464.14	0.003
464.35	0.003
464.55	0.003
464.75	0.003
464.95	0.003
465.16	0.003
465.36	0.003
465.56	0.003
465.76	0.003
465.97	0.003
466.17	0.003
466.37	0.003
466.57	0.003
466.78	0.003
466.98	0.003
467.18	0.003
467.38	0.003
467.59	0.003
467.79	0.003
467.99	0.003
468.19	0.003
468.39	0.003
468.60	0.003
468.80	0.003
469.00	0.003
469.20	0.003
469.41	0.003
469.61	0.003
469.81	0.003
470.01	0.003
470.22	0.003
470.42	0.003
470.62	0.003
470.82	0.003
471.02	0.003
471.23	0.003
471.43	0.003
471.63	0.003
471.83	0.003
472.04	0.003
472.24	0.003
472.44	0.003
472.64	0.003
472.84	0.003
473.05	0.003
473.25	0.003
473.45	0.003
473.65	0.003
473.85	0.003
474.06	0.003
474.26	0.003
474.46	0.003
474.66	0.003
474.86	0.003
475.07	0.004
475.27	0.004
475.47	0.004
475.67	0.004
475.87	0.004
476.08	0.004
476.28	0.004
476.48	0.004
476.68	0.004
476.88	0.003
477.09	0.004
477.29	0.003
477.49	0.003
477.69	0.003
477.89	0.003
478.09	0.003
478.30	0.003
478.50	0.003
478.70	0.003
478.90	0.003
479.10	0.003
479.31	0.003
479.51	0.003
479.71	0.003
479.91	0.003
480.11	0.003
480.31	0.003
480.52	0.003
480.72	0.003
480.92	0.003
481.12	0.003
481.32	0.003
481.52	0.003
481.72	0.003
481.93	0.003
482.13	0.003
482.33	0.003
482.53	0.003
482.73	0.003
482.93	0.003
483.14	0.003
483.34	0.003
483.54	0.003
483.74	0.003
483.94	0.003
484.14	0.003
484.34	0.003
484.55	0.003
484.75	0.003
484.95	0.003
485.15	0.003
485.35	0.003
485.55	0.003
485.75	0.003
485.96	0.003
486.16	0.003
486.36	0.003
486.56	0.003
486.76	0.003
486.96	0.003
487.16	0.003
487.36	0.003
487.57	0.003
487.77	0.003
487.97	0.003
488.17	0.003
488.37	0.002
488.57	0.003
488.77	0.003
488.97	0.003
489.18	0.003
489.38	0.003
489.58	0.003
489.78	0.003
489.98	0.003
490.18	0.003
490.38	0.003
490.58	0.003
490.78	0.003
490.98	0.003
491.19	0.003
491.39	0.003
491.59	0.003
491.79	0.003
491.99	0.003
492.19	0.003
492.39	0.003
492.59	0.003
492.79	0.003
492.99	0.003
493.20	0.003
493.40	0.003
493.60	0.003
493.80	0.003
494.00	0.003
494.20	0.003
494.40	0.003
494.60	0.003
494.80	0.003
495.00	0.003
495.20	0.003
495.40	0.003
495.61	0.003
495.81	0.003
496.01	0.003
496.21	0.003
496.41	0.003
496.61	0.003
496.81	0.003
497.01	0.003
497.21	0.003
497.41	0.003
497.61	0.003
497.81	0.003
498.01	0.003
498.21	0.003
498.41	0.003
498.61	0.003
498.82	0.003
499.02	0.003
499.22	0.003
499.42	0.003
499.62	0.003
499.82	0.003
500.02	0.003
500.22	0.003
500.42	0.003
500.62	0.003
500.82	0.003
501.02	0.003
501.22	0.003
501.42	0.002
501.62	0.003
501.82	0.003
502.02	0.002
502.22	0.002
502.42	0.003
502.62	0.003
502.82	0.003
503.02	0.003
503.22	0.003
503.42	0.003
503.63	0.003
503.83	0.003
504.03	0.003
504.23	0.003
504.43	0.003
504.63	0.003
504.83	0.003
505.03	0.003
505.23	0.003
505.43	0.003
505.63	0.003
505.83	0.003
506.03	0.003
506.23	0.003
506.43	0.003
506.63	0.003
506.83	0.003
507.03	0.002
507.23	0.002
507.43	0.002
507.63	0.003
507.83	0.003
508.03	0.002
508.23	0.002
508.43	0.002
508.63	0.002
508.83	0.003
509.03	0.003
509.23	0.003
509.43	0.003
509.63	0.003
509.83	0.003
510.03	0.003
510.23	0.002
510.43	0.002
510.63	0.003
510.83	0.003
511.03	0.002
511.23	0.003
511.43	0.003
511.63	0.003
511.83	0.003
512.03	0.003
512.22	0.003
512.42	0.003
512.62	0.003
512.82	0.003
513.02	0.003
513.22	0.003
513.42	0.003
513.62	0.003
513.82	0.003
514.02	0.003
514.22	0.003
514.42	0.002
514.62	0.003
514.82	0.002
515.02	0.002
515.22	0.002
515.42	0.002
515.62	0.002
515.82	0.002
516.02	0.002
516.22	0.002
516.42	0.002
516.62	0.002
516.82	0.002
517.01	0.002
517.21	0.003
517.41	0.003
517.61	0.003
517.81	0.003
518.01	0.003
518.21	0.003
518.41	0.003
518.61	0.003
518.81	0.003
519.01	0.003
519.21	0.003
519.41	0.003
519.61	0.003
519.81	0.003
520.00	0.002
520.20	0.003
520.40	0.003
520.60	0.003
520.80	0.003
521.00	0.003
521.20	0.003
521.40	0.003
521.60	0.003
521.80	0.003
522.00	0.003
522.20	0.003
522.39	0.003
522.59	0.003
522.79	0.003
522.99	0.003
523.19	0.003
523.39	0.003
523.59	0.003
523.79	0.003
523.99	0.003
524.19	0.003
524.38	0.003
524.58	0.003
524.78	0.003
524.98	0.003
525.18	0.003
525.38	0.003
525.58	0.003
525.78	0.003
525.98	0.003
526.18	0.003
526.37	0.003
526.57	0.002
526.77	0.002
526.97	0.002
527.17	0.002
527.37	0.002
527.57	0.002
527.77	0.002
527.96	0.002
528.16	0.002
528.36	0.002
528.56	0.003
528.76	0.003
528.96	0.003
529.16	0.003
529.36	0.003
529.55	0.003
529.75	0.003
529.95	0.003
530.15	0.003
530.35	0.003
530.55	0.003
530.75	0.003
530.94	0.003
531.14	0.003
531.34	0.003
531.54	0.003
531.74	0.003
531.94	0.003
532.13	0.003
532.33	0.003
532.53	0.003
532.73	0.003
532.93	0.003
533.13	0.003
533.33	0.003
533.52	0.003
533.72	0.003
533.92	0.003
534.12	0.003
534.32	0.003
534.52	0.003
534.71	0.003
534.91	0.003
535.11	0.003
535.31	0.003
535.51	0.002
535.71	0.002
535.90	0.002
536.10	0.002
536.30	0.002
536.50	0.002
536.70	0.002
536.89	0.002
537.09	0.002
537.29	0.002
537.49	0.002
537.69	0.002
537.89	0.003
538.08	0.002
538.28	0.002
538.48	0.002
538.68	0.002
538.88	0.003
539.07	0.002
539.27	0.002
539.47	0.002
539.67	0.002
539.87	0.002
540.06	0.002
540.26	0.002
540.46	0.002
540.66	0.002
540.86	0.002
541.05	0.003
541.25	0.003
541.45	0.003
541.65	0.003
541.84	0.003
542.04	0.003
542.24	0.003
542.44	0.003
542.64	0.003
542.83	0.002
543.03	0.002
543.23	0.002
543.43	0.002
543.62	0.002
543.82	0.002
544.02	0.003
544.22	0.002
544.42	0.002
544.61	0.003
544.81	0.003
545.01	0.003
545.21	0.002
545.40	0.002
545.60	0.003
545.80	0.003
546.00	0.003
546.19	0.003
546.39	0.003
546.59	0.003
546.79	0.003
546.98	0.003
547.18	0.003
547.38	0.003
547.58	0.003
547.77	0.003
547.97	0.003
548.17	0.002
548.37	0.002
548.56	0.002
548.76	0.002
548.96	0.002
549.16	0.002
549.35	0.002
549.55	0.002
549.75	0.002
549.95	0.002
550.14	0.002
550.34	0.002
550.54	0.002
550.73	0.002
550.93	0.002
551.13	0.002
551.33	0.002
551.52	0.002
551.72	0.002
551.92	0.002
552.12	0.002
552.31	0.002
552.51	0.002
552.71	0.003
552.90	0.003
553.10	0.003
553.30	0.003
553.50	0.003
553.69	0.002
553.89	0.002
554.09	0.002
554.28	0.002
554.48	0.002
554.68	0.002
554.87	0.002
555.07	0.002
555.27	0.002
555.47	0.002
555.66	0.002
555.86	0.002
556.06	0.002
556.25	0.002
556.45	0.002
556.65	0.002
556.84	0.002
557.04	0.002
557.24	0.002
557.43	0.002
557.63	0.002
557.83	0.002
558.02	0.002
558.22	0.002
558.42	0.003
558.61	0.003
558.81	0.003
559.01	0.002
559.21	0.002
559.40	0.003
559.60	0.002
559.80	0.003
559.99	0.003
560.19	0.003
560.39	0.003
560.58	0.003
560.78	0.003
560.97	0.003
561.17	0.003
561.37	0.003
561.56	0.003
561.76	0.003
561.96	0.002
562.15	0.002
562.35	0.002
562.55	0.002
562.74	0.002
562.94	0.002
563.14	0.002
563.33	0.002
563.53	0.002
563.73	0.002
563.92	0.002
564.12	0.002
564.31	0.002
564.51	0.002
564.71	0.002
564.90	0.002
565.10	0.002
565.30	0.002
565.49	0.002
565.69	0.002
565.89	0.002
566.08	0.002
566.28	0.002
566.47	0.002
566.67	0.003
566.87	0.002
567.06	0.002
567.26	0.002
567.46	0.002
567.65	0.002
567.85	0.002
568.04	0.002
568.24	0.002
568.44	0.002
568.63	0.002
568.83	0.002
569.02	0.002
569.22	0.002
569.42	0.002
569.61	0.002
569.81	0.002
570.00	0.002
570.20	0.002
570.40	0.003
570.59	0.002
570.79	0.002
570.98	0.002
571.18	0.002
571.38	0.002
571.57	0.002
571.77	0.002
571.96	0.002
572.16	0.002
572.35	0.002
572.55	0.002
572.75	0.002
572.94	0.002
573.14	0.003
573.33	0.003
573.53	0.003
573.73	0.002
573.92	0.002
574.12	0.002
574.31	0.002
574.51	0.002
574.70	0.002
574.90	0.002
575.09	0.002
575.29	0.001
575.49	0.001
575.68	0.001
575.88	0.001
576.07	0.001
576.27	0.000
576.46	0.000
576.66	0.000
576.86	0.000
577.05	0.000
577.25	0.000
577.44	0.000
577.64	0.000
577.83	0.000
578.03	0.000
578.22	0.000
578.42	0.000
578.61	0.000
578.81	0.000
579.00	0.000
579.20	0.000
579.40	0.000
579.59	0.000
579.79	0.000
579.98	0.000
580.18	0.000
580.37	0.000
580.57	0.000
580.76	0.000
580.96	0.000
581.15	0.000
581.35	0.000
581.54	0.000
581.74	0.000
581.93	0.000
582.13	0.000
582.32	0.000
582.52	0.000
582.71	0.000
582.91	0.000
583.10	0.000
583.30	0.000
583.49	0.000
583.69	0.000
583.88	0.000
584.08	0.000
584.27	0.000
584.47	0.000
584.66	0.000
584.86	0.000
585.05	0.000
585.25	0.000
585.44	0.000
585.64	0.000
585.83	0.000
586.03	0.000
586.22	0.000
586.42	0.000
586.61	0.000
586.81	0.001
587.00	0.001
587.20	0.001
587.39	0.001
587.59	0.001
587.78	0.001
587.98	0.002
588.17	0.002
588.37	0.002
588.56	0.002
588.76	0.002
588.95	0.002
589.15	0.002
589.34	0.002
589.54	0.002
589.73	0.002
589.92	0.002
590.12	0.002
590.31	0.002
590.51	0.002
590.70	0.002
590.90	0.002
591.09	0.002
591.29	0.002
591.48	0.002
591.68	0.002
591.87	0.002
592.06	0.002
592.26	0.002
592.45	0.002
592.65	0.002
592.84	0.002
593.04	0.002
593.23	0.002
593.43	0.002
593.62	0.002
593.81	0.002
594.01	0.002
594.20	0.002
594.40	0.002
594.59	0.002
594.79	0.002
594.98	0.002
595.17	0.002
595.37	0.002
595.56	0.002
595.76	0.002
595.95	0.002
596.14	0.002
596.34	0.002
596.53	0.002
596.73	0.002
596.92	0.002
597.12	0.002
597.31	0.002
597.50	0.002
597.70	0.002
597.89	0.002
598.09	0.002
598.28	0.002
598.47	0.002
598.67	0.002
598.86	0.002
599.06	0.002
599.25	0.002
599.44	0.002
599.64	0.002
599.83	0.002
600.03	0.002
600.22	0.002
600.41	0.002
600.61	0.002
600.80	0.002
601.00	0.002
601.19	0.002
601.38	0.002
601.58	0.002
601.77	0.002
601.96	0.002
602.16	0.002
602.35	0.002
602.55	0.002
602.74	0.002
602.93	0.002
603.13	0.002
603.32	0.002
603.51	0.002
603.71	0.002
603.90	0.002
604.09	0.002
604.29	0.002
604.48	0.002
604.68	0.002
604.87	0.002
605.06	0.002
605.26	0.002
605.45	0.002
605.64	0.002
605.84	0.002
606.03	0.002
606.22	0.002
606.42	0.002
606.61	0.002
606.80	0.002
607.00	0.002
607.19	0.002
607.38	0.002
607.58	0.002
607.77	0.002
607.96	0.002
608.16	0.002
608.35	0.002
608.54	0.002
608.74	0.002
608.93	0.002
609.12	0.002
609.32	0.002
609.51	0.002
609.70	0.002
609.90	0.002
610.09	0.002
610.28	0.002
610.48	0.002
610.67	0.002
610.86	0.002
611.06	0.002
611.25	0.002
611.44	0.002
611.64	0.002
611.83	0.002
612.02	0.002
612.21	0.002
612.41	0.002
612.60	0.002
612.79	0.002
612.99	0.002
613.18	0.002
613.37	0.002
613.57	0.002
613.76	0.002
613.95	0.002
614.14	0.002
614.34	0.002
614.53	0.002
614.72	0.002
614.92	0.002
615.11	0.002
615.30	0.002
615.49	0.002
615.69	0.002
615.88	0.002
616.07	0.002
616.26	0.002
616.46	0.002
616.65	0.002
616.84	0.002
617.04	0.002
617.23	0.002
617.42	0.002
617.61	0.002
617.81	0.002
618.00	0.002
618.19	0.002
618.38	0.002
618.58	0.002
618.77	0.002
618.96	0.002
619.15	0.002
619.35	0.002
619.54	0.002
619.73	0.002
619.92	0.002
620.12	0.002
620.31	0.002
620.50	0.002
620.69	0.002
620.89	0.002
621.08	0.002
621.27	0.002
621.46	0.002
621.66	0.002
621.85	0.002
622.04	0.002
622.23	0.002
622.43	0.002
622.62	0.002
622.81	0.002
623.00	0.002
623.19	0.002
623.39	0.002
623.58	0.002
623.77	0.002
623.96	0.002
624.16	0.002
624.35	0.002
624.54	0.002
624.73	0.002
624.92	0.002
625.12	0.002
625.31	0.002
625.50	0.002
625.69	0.002
625.88	0.002
626.08	0.002
626.27	0.002
626.46	0.002
626.65	0.002
626.84	0.003
627.04	0.003
627.23	0.003
627.42	0.003
627.61	0.003
627.80	0.003
628.00	0.003
628.19	0.003
628.38	0.002
628.57	0.002
628.76	0.002
628.96	0.002
629.15	0.002
629.34	0.002
629.53	0.002
629.72	0.002
629.91	0.002
630.11	0.002
630.30	0.002
630.49	0.003
630.68	0.003
630.87	0.003
631.06	0.003
631.26	0.003
631.45	0.003
631.64	0.003
631.83	0.003
632.02	0.003
632.21	0.003
632.41	0.003
632.60	0.003
632.79	0.003
632.98	0.003
633.17	0.002
633.36	0.002
633.55	0.003
633.75	0.002
633.94	0.003
634.13	0.002
634.32	0.002
634.51	0.002
634.70	0.002
634.89	0.002
635.09	0.002
635.28	0.002
635.47	0.002
635.66	0.002
635.85	0.002
636.04	0.002
636.23	0.002
636.43	0.002
636.62	0.002
636.81	0.002
637.00	0.002
637.19	0.002
637.38	0.002
637.57	0.002
637.76	0.002
637.95	0.002
638.15	0.002
638.34	0.003
638.53	0.003
638.72	0.003
638.91	0.003
639.10	0.003
639.29	0.003
639.48	0.003
639.67	0.003
639.87	0.003
640.06	0.003
640.25	0.003
640.44	0.002
640.63	0.002
640.82	0.002
641.01	0.002
641.20	0.002
641.39	0.002
641.58	0.002
641.78	0.002
641.97	0.002
642.16	0.002
642.35	0.002
642.54	0.002
642.73	0.002
642.92	0.002
643.11	0.002
643.30	0.002
643.49	0.002
643.68	0.002
643.87	0.002
644.06	0.002
644.25	0.002
644.45	0.002
644.64	0.002
644.83	0.002
645.02	0.002
645.21	0.002
645.40	0.002
645.59	0.002
645.78	0.002
645.97	0.002
646.16	0.002
646.35	0.002
646.54	0.002
646.73	0.002
646.92	0.002
647.11	0.002
647.30	0.002
647.49	0.002
647.68	0.002
647.88	0.002
648.07	0.002
648.26	0.002
648.45	0.002
648.64	0.002
648.83	0.002
649.02	0.002
649.21	0.002
649.40	0.002
649.59	0.002
649.78	0.003
649.97	0.002
650.16	0.002
650.35	0.002
650.54	0.002
650.73	0.003
650.92	0.002
651.11	0.002
651.30	0.002
651.49	0.002
651.68	0.002
651.87	0.002
652.06	0.002
652.25	0.002
652.44	0.002
652.63	0.002
652.82	0.003
653.01	0.003
653.20	0.003
653.39	0.003
653.58	0.003
653.77	0.003
653.96	0.003
654.15	0.003
654.34	0.003
654.53	0.003
654.72	0.003
654.91	0.002
655.10	0.002
655.29	0.002
655.48	0.002
655.67	0.002
655.86	0.002
656.05	0.002
656.24	0.002
656.43	0.002
656.62	0.002
656.81	0.002
657.00	0.002
657.19	0.002
657.38	0.002
657.57	0.002
657.76	0.001
657.95	0.001
658.14	0.001
658.33	0.001
658.51	0.001
658.70	0.001
658.89	0.002
659.08	0.001
659.27	0.002
659.46	0.002
659.65	0.002
659.84	0.002
660.03	0.002
660.22	0.002
660.41	0.002
660.60	0.002
660.79	0.002
660.98	0.002
661.17	0.002
661.36	0.002
661.55	0.002
661.74	0.002
661.92	0.003
662.11	0.003
662.30	0.003
662.49	0.003
662.68	0.002
662.87	0.002
663.06	0.002
663.25	0.003
663.44	0.003
663.63	0.003
663.82	0.003
664.01	0.003
664.20	0.003
664.38	0.003
664.57	0.003
664.76	0.003
664.95	0.003
665.14	0.003
665.33	0.003
665.52	0.003
665.71	0.003
665.90	0.003
666.09	0.002
666.28	0.002
666.46	0.002
666.65	0.002
666.84	0.002
667.03	0.002
667.22	0.002
667.41	0.002
667.60	0.002
667.79	0.002
667.98	0.002
668.16	0.002
668.35	0.002
668.54	0.002
668.73	0.002
668.92	0.002
669.11	0.002
669.30	0.002
669.49	0.002
669.67	0.002
669.86	0.002
670.05	0.002
670.24	0.002
670.43	0.002
670.62	0.002
670.81	0.002
671.00	0.002
671.18	0.002
671.37	0.002
671.56	0.002
671.75	0.002
671.94	0.002
672.13	0.002
672.32	0.002
672.50	0.002
672.69	0.002
672.88	0.002
673.07	0.002
673.26	0.002
673.45	0.002
673.63	0.002
673.82	0.002
674.01	0.002
674.20	0.002
674.39	0.002
674.58	0.002
674.76	0.002
674.95	0.002
675.14	0.002
675.33	0.002
675.52	0.002
675.71	0.002
675.89	0.002
676.08	0.002
676.27	0.002
676.46	0.003
676.65	0.002
676.84	0.003
677.02	0.002
677.21	0.002
677.40	0.002
677.59	0.002
677.78	0.003
677.96	0.003
678.15	0.003
678.34	0.002
678.53	0.002
678.72	0.002
678.90	0.002
679.09	0.002
679.28	0.002
679.47	0.002
679.66	0.002
679.84	0.002
680.03	0.002
680.22	0.002
680.41	0.002
680.60	0.002
680.78	0.002
680.97	0.002
681.16	0.002
681.35	0.002
681.53	0.002
681.72	0.002
681.91	0.002
682.10	0.002
682.29	0.002
682.47	0.002
682.66	0.002
682.85	0.002
683.04	0.002
683.22	0.002
683.41	0.002
683.60	0.002
683.79	0.002
683.97	0.002
684.16	0.002
684.35	0.002
684.54	0.002
684.72	0.002
684.91	0.002
685.10	0.002
685.29	0.002
685.47	0.002
685.66	0.002
685.85	0.002
686.04	0.002
686.22	0.002
686.41	0.002
686.60	0.002
686.79	0.002
686.97	0.002
687.16	0.002
687.35	0.002
687.54	0.002
687.72	0.002
687.91	0.002
688.10	0.002
688.29	0.002
688.47	0.002
688.66	0.002
688.85	0.002
689.03	0.002
689.22	0.002
689.41	0.002
689.60	0.002
689.78	0.002
689.97	0.002
690.16	0.002
690.34	0.002
690.53	0.002
690.72	0.002
690.91	0.002
691.09	0.002
691.28	0.002
691.47	0.002
691.65	0.002
691.84	0.002
692.03	0.002
692.21	0.002
692.40	0.002
692.59	0.002
692.77	0.002
692.96	0.002
693.15	0.002
693.34	0.002
693.52	0.002
693.71	0.002
693.90	0.002
694.08	0.002
694.27	0.002
694.46	0.002
694.64	0.002
694.83	0.002
695.02	0.002
695.20	0.002
695.39	0.002
695.58	0.002
695.76	0.002
695.95	0.002
696.14	0.002
696.32	0.002
696.51	0.002
696.70	0.002
696.88	0.002
697.07	0.002
697.26	0.002
697.44	0.002
697.63	0.002
697.81	0.002
698.00	0.002
698.19	0.002
698.37	0.002
698.56	0.002
698.75	0.002
698.93	0.003
699.12	0.002
699.31	0.002
699.49	0.002
699.68	0.002
699.87	0.002
700.05	0.002
700.24	0.002
700.42	0.002
700.61	0.002
700.80	0.002
700.98	0.002
701.17	0.002
701.36	0.002
701.54	0.002
701.73	0.002
701.91	0.002
702.10	0.002
702.29	0.002
702.47	0.002
702.66	0.002
702.84	0.002
703.03	0.002
703.22	0.002
703.40	0.002
703.59	0.002
703.77	0.002
703.96	0.002
704.15	0.002
704.33	0.002
704.52	0.002
704.70	0.003
704.89	0.002
705.08	0.002
705.26	0.002
705.45	0.002
705.63	0.002
705.82	0.002
706.00	0.002
706.19	0.002
706.38	0.002
706.56	0.002
706.75	0.002
706.93	0.002
707.12	0.002
707.30	0.002
707.49	0.002
707.68	0.002
707.86	0.002
708.05	0.002
708.23	0.002
708.42	0.002
708.60	0.002
708.79	0.002
708.98	0.002
709.16	0.002
709.35	0.002
709.53	0.002
709.72	0.002
709.90	0.002
710.09	0.002
710.27	0.002
710.46	0.002
710.64	0.002
710.83	0.002
711.02	0.002
711.20	0.002
711.39	0.002
711.57	0.002
711.76	0.002
711.94	0.002
712.13	0.002
712.31	0.002
712.50	0.002
712.68	0.002
712.87	0.002
713.05	0.002
713.24	0.002
713.42	0.002
713.61	0.002
713.79	0.002
713.98	0.002
714.16	0.002
714.35	0.002
714.54	0.002
714.72	0.002
714.91	0.002
715.09	0.003
715.28	0.003
715.46	0.003
715.65	0.003
715.83	0.003
716.02	0.003
716.20	0.003
716.39	0.003
716.57	0.003
716.76	0.003
716.94	0.003
717.12	0.003
717.31	0.003
717.49	0.002
717.68	0.002
717.86	0.002
718.05	0.002
718.23	0.002
718.42	0.002
718.60	0.002
718.79	0.002
718.97	0.002
719.16	0.002
719.34	0.002
719.53	0.002
719.71	0.002
719.90	0.002
720.08	0.002
720.27	0.002
720.45	0.002
720.63	0.002
720.82	0.002
721.00	0.002
721.19	0.002
721.37	0.002
721.56	0.002
721.74	0.002
721.93	0.002
722.11	0.002
722.30	0.002
722.48	0.002
722.66	0.002
722.85	0.002
723.03	0.002
723.22	0.002
723.40	0.002
723.59	0.003
723.77	0.003
723.95	0.002
724.14	0.002
724.32	0.002
724.51	0.002
724.69	0.002
724.88	0.002
725.06	0.002
725.24	0.002
725.43	0.002
725.61	0.002
725.80	0.002
725.98	0.002
726.16	0.002
726.35	0.002
726.53	0.003
726.72	0.003
726.90	0.003
727.09	0.003
727.27	0.003
727.45	0.003
727.64	0.003
727.82	0.003
728.01	0.003
728.19	0.003
728.37	0.003
728.56	0.003
728.74	0.003
728.92	0.003
729.11	0.003
729.29	0.004
729.48	0.004
729.66	0.003
729.84	0.003
730.03	0.003
730.21	0.003
730.40	0.003
730.58	0.003
730.76	0.003
730.95	0.002
731.13	0.002
731.31	0.001
731.50	0.002
731.68	0.002
731.86	0.002
732.05	0.002
732.23	0.002
732.42	0.002
732.60	0.002
732.78	0.003
732.97	0.003
733.15	0.003
733.33	0.003
733.52	0.003
733.70	0.002
733.88	0.002
734.07	0.002
734.25	0.002
734.43	0.003
734.62	0.002
734.80	0.002
734.98	0.002
735.17	0.001
735.35	0.001
735.53	0.001
735.72	0.002
735.90	0.002
736.08	0.002
736.27	0.002
736.45	0.002
736.63	0.002
736.82	0.002
737.00	0.002
737.18	0.003
737.37	0.003
737.55	0.002
737.73	0.002
737.92	0.002
738.10	0.002
738.28	0.002
738.46	0.001
738.65	0.001
738.83	0.001
739.01	0.001
739.20	0.001
739.38	0.001
739.56	0.001
739.75	0.001
739.93	0.001
740.11	0.002
740.29	0.002
740.48	0.002
740.66	0.002
740.84	0.003
741.03	0.003
741.21	0.004
741.39	0.004
741.57	0.004
741.76	0.003
741.94	0.002
742.12	0.002
742.31	0.002
742.49	0.002
742.67	0.002
742.85	0.002
743.04	0.002
743.22	0.002
743.40	0.002
743.58	0.002
743.77	0.003
743.95	0.003
744.13	0.004
744.31	0.004
744.50	0.004
744.68	0.004
744.86	0.005
745.04	0.005
745.23	0.005
745.41	0.004
745.59	0.004
745.77	0.003
745.96	0.004
746.14	0.003
746.32	0.003
746.50	0.003
746.69	0.003
746.87	0.002
747.05	0.002
747.23	0.002
747.42	0.003
747.60	0.003
747.78	0.003
747.96	0.003
748.14	0.004
748.33	0.003
748.51	0.003
748.69	0.004
748.87	0.004
749.06	0.004
749.24	0.004
749.42	0.004
749.60	0.004
749.78	0.003
749.97	0.003
750.15	0.003
750.33	0.003
750.51	0.003
750.69	0.003
750.88	0.003
751.06	0.003
751.24	0.003
751.42	0.003
751.60	0.002
751.79	0.003
751.97	0.003
752.15	0.003
752.33	0.002
752.51	0.002
752.69	0.002
752.88	0.002
753.06	0.001
753.24	0.001
753.42	0.002
753.60	0.002
753.78	0.002
753.97	0.002
754.15	0.003
754.33	0.003
754.51	0.003
754.69	0.003
754.87	0.002
755.06	0.002
755.24	0.002
755.42	0.002
755.60	0.002
755.78	0.002
755.96	0.002
756.15	0.002
756.33	0.001
756.51	0.002
756.69	0.002
756.87	0.003
757.05	0.003
757.23	0.003
757.42	0.002
757.60	0.003
757.78	0.003
757.96	0.003
758.14	0.003
758.32	0.003
758.50	0.003
758.69	0.003
758.87	0.002
759.05	0.003
759.23	0.003
759.41	0.002
759.59	0.002
759.77	0.002
759.95	0.002
760.13	0.002
760.32	0.002
760.50	0.002
760.68	0.002
760.86	0.002
761.04	0.002
761.22	0.002
761.40	0.003
761.58	0.003
761.76	0.003
761.95	0.003
762.13	0.003
762.31	0.003
762.49	0.003
762.67	0.003
762.85	0.003
763.03	0.003
763.21	0.003
763.39	0.003
763.57	0.003
763.75	0.003
763.94	0.003
764.12	0.003
764.30	0.003
764.48	0.003
764.66	0.003
764.84	0.002
765.02	0.002
765.20	0.001
765.38	0.002
765.56	0.002
765.74	0.002
765.92	0.002
766.10	0.002
766.28	0.002
766.46	0.001
766.65	0.001
766.83	0.001
767.01	0.001
767.19	0.001
767.37	0.000
767.55	0.000
767.73	0.001
767.91	0.001
768.09	0.001
768.27	0.001
768.45	0.002
768.63	0.002
768.81	0.002
768.99	0.002
769.17	0.003
769.35	0.003
769.53	0.002
769.71	0.002
769.89	0.002
770.07	0.002
770.25	0.002
770.43	0.002
770.61	0.002
770.79	0.002
770.97	0.002
771.15	0.002
771.33	0.002
771.51	0.002
771.69	0.002
771.87	0.002
772.05	0.002
772.24	0.001
772.42	0.001
772.60	0.002
772.78	0.002
772.96	0.003
773.14	0.002
773.32	0.002
773.49	0.003
773.67	0.003
773.85	0.003
774.03	0.003
774.21	0.003
774.39	0.003
774.57	0.002
774.75	0.002
774.93	0.002
775.11	0.002
775.29	0.003
775.47	0.002
775.65	0.002
775.83	0.002
776.01	0.002
776.19	0.002
776.37	0.002
776.55	0.002
776.73	0.002
776.91	0.001
777.09	0.001
777.27	0.001
777.45	0.001
777.63	0.002
777.81	0.002
777.99	0.003
778.17	0.002
778.35	0.003
778.53	0.002
778.71	0.003
778.89	0.002
779.07	0.002
779.24	0.002
779.42	0.002
779.60	0.002
779.78	0.001
779.96	0.001
780.14	0.000
780.32	-0.000
780.50	-0.000
780.68	-0.000
780.86	-0.000
781.04	-0.000
781.22	-0.000
781.40	0.000
781.58	0.000
781.75	0.001
781.93	0.001
782.11	0.002
782.29	0.002
782.47	0.002
782.65	0.003
782.83	0.002
783.01	0.002
783.19	0.002
783.37	0.001
783.55	0.001
783.72	0.001
783.90	0.001
784.08	0.001
784.26	0.001
784.44	0.001
784.62	0.001
784.80	0.001
784.98	0.001
785.16	0.001
785.33	0.002
785.51	0.002
785.69	0.002
785.87	0.002
786.05	0.002
786.23	0.002
786.41	0.002
786.59	0.002
786.77	0.002
786.94	0.002
787.12	0.002
787.30	0.002
787.48	0.002
787.66	0.002
787.84	0.002
788.02	0.002
788.19	0.002
788.37	0.002
788.55	0.002
788.73	0.002
788.91	0.002
789.09	0.002
789.27	0.002
789.44	0.002
789.62	0.002
789.80	0.002
789.98	0.002
790.16	0.002
790.34	0.001
790.51	0.001
790.69	0.001
790.87	0.002
791.05	0.001
791.23	0.002
791.41	0.002
791.58	0.002
791.76	0.002
791.94	0.002
792.12	0.002
792.30	0.003
792.48	0.003
792.65	0.003
792.83	0.002
793.01	0.002
793.19	0.002
793.37	0.002
793.54	0.002
793.72	0.001
793.90	0.001
794.08	0.001
794.26	0.001
794.43	0.001
794.61	0.002
794.79	0.002
794.97	0.002
795.15	0.002
795.32	0.002
795.50	0.002
795.68	0.002
795.86	0.002
796.04	0.002
796.21	0.002
796.39	0.002
796.57	0.002
796.75	0.002
796.92	0.002
797.10	0.002
797.28	0.002
797.46	0.002
797.64	0.002
797.81	0.002
797.99	0.002
798.17	0.001
798.35	0.002
798.52	0.002
798.70	0.002
798.88	0.002
799.06	0.002
799.23	0.001
799.41	0.002
799.59	0.002
799.77	0.002
799.94	0.002
800.12	0.002
800.30	0.002
800.48	0.002
800.65	0.001
800.83	0.001
801.01	0.001
801.19	0.002
801.36	0.002
801.54	0.001
801.72	0.001
801.90	0.001
802.07	0.001
802.25	0.001
802.43	0.001
802.60	0.001
802.78	0.001
802.96	0.001
803.14	0.001
803.31	0.001
803.49	0.001
803.67	0.001
803.84	0.001
804.02	0.001
804.20	0.002
804.38	0.002
804.55	0.001
804.73	0.001
804.91	0.001
805.08	0.001
805.26	0.001
805.44	0.001
805.61	0.001
805.79	0.002
805.97	0.001
806.15	0.001
806.32	0.001
806.50	0.001
806.68	0.000
806.85	0.000
807.03	-0.000
807.21	0.000
807.38	0.000
807.56	-0.000
807.74	-0.000
807.91	0.000
808.09	0.000
808.27	0.000
808.44	0.001
808.62	0.000
808.80	0.001
808.97	0.001
809.15	0.001
809.33	0.001
809.50	0.001
809.68	0.001
809.86	0.001
810.03	0.001
810.21	0.001
810.39	0.002
810.56	0.002
810.74	0.002
810.91	0.002
811.09	0.001
811.27	0.001
811.44	0.001
811.62	0.001
811.80	0.001
811.97	0.001
812.15	0.001
812.33	0.002
812.50	0.002
812.68	0.001
812.85	0.002
813.03	0.002
813.21	0.002
813.38	0.002
813.56	0.002
813.74	0.002
813.91	0.002
814.09	0.002
814.26	0.002
814.44	0.002
814.62	0.002
814.79	0.002
814.97	0.002
815.14	0.002
815.32	0.001
815.50	0.001
815.67	0.001
815.85	0.002
816.02	0.002
816.20	0.001
816.38	0.002
816.55	0.002
816.73	0.002
816.90	0.002
817.08	0.002
817.26	0.002
817.43	0.002
817.61	0.002
817.78	0.001
817.96	0.002
818.13	0.002
818.31	0.002
818.49	0.002
818.66	0.001
818.84	0.002
819.01	0.001
819.19	0.001
819.36	0.001
819.54	0.001
819.71	0.001
819.89	0.001
820.07	0.002
820.24	0.002
820.42	0.002
820.59	0.002
820.77	0.002
820.94	0.002
821.12	0.002
821.29	0.002
821.47	0.002
821.64	0.002
821.82	0.002
822.00	0.002
822.17	0.001
822.35	0.001
822.52	0.001
822.70	0.001
822.87	0.001
823.05	0.001
823.22	0.001
823.40	0.000
823.57	0.001
823.75	0.001
823.92	0.001
824.10	0.002
824.27	0.002
824.45	0.001
824.62	0.002
824.80	0.001
824.97	0.002
825.15	0.002
825.32	0.003
825.50	0.002
825.67	0.002
825.85	0.001
826.02	0.001
826.20	0.002
826.37	0.002
826.55	0.001
826.72	0.001
826.90	0.001
827.07	0.001
827.25	0.001
827.42	0.001
827.60	0.000
827.77	0.001
827.95	0.001
828.12	0.001
828.30	0.001
828.47	0.001
828.65	0.001
828.82	0.002
829.00	0.001
829.17	0.001
829.34	0.001
829.52	0.001
829.69	0.002
829.87	0.001
830.04	0.001
830.22	0.001
830.39	0.001
830.57	0.002
830.74	0.002
830.92	0.001
831.09	0.001
831.26	0.001
831.44	0.003
831.61	0.003
831.79	0.004
831.96	0.004
832.14	0.004
832.31	0.004
832.49	0.004
832.66	0.004
832.83	0.005
833.01	0.005
833.18	0.006
833.36	0.004
833.53	0.004
833.70	0.004
833.88	0.004
834.05	0.004
834.23	0.005
834.40	0.004
834.58	0.005
834.75	0.005
834.92	0.005
835.10	0.005
835.27	0.005
835.45	0.004
835.62	0.005
835.79	0.005
835.97	0.006
836.14	0.005
836.32	0.006
836.49	0.005
836.66	0.005
836.84	0.003
837.01	0.002
837.18	0.005
837.36	0.006
837.53	0.005
837.71	0.005
837.88	0.004
838.05	0.004
838.23	0.004
838.40	0.004
838.58	0.004
838.75	0.005
838.92	0.005
839.10	0.002
839.27	0.001
839.44	0.002
839.62	0.002
839.79	0.001
839.96	0.002
840.14	0.001
840.31	0.002
840.48	0.002
840.66	0.004
840.83	0.003
841.01	0.003
841.18	0.003
841.35	0.001
841.53	-0.001
841.70	0.001
841.87	-0.000
842.05	-0.001
842.22	-0.001
842.39	-0.002
842.57	-0.004
842.74	-0.002
842.91	-0.001
843.09	0.000
843.26	0.002
843.43	0.004
843.60	0.003
843.78	0.004
843.95	0.006
844.12	0.005
844.30	0.006
844.47	0.006
844.64	0.005
844.82	0.004
844.99	0.003
845.16	0.003
845.34	0.003
845.51	0.004
845.68	0.006
845.85	0.006
846.03	0.006
846.20	0.006
846.37	0.006
846.55	0.008
846.72	0.009
846.89	0.010
847.06	0.010
847.24	0.012
847.41	0.010
847.58	0.008
847.76	0.010
847.93	0.013
848.10	0.012
848.27	0.012
848.45	0.012
848.62	0.013
848.79	0.011
848.97	0.012
849.14	0.011
849.31	0.013
849.48	0.014
849.66	0.013
849.83	0.012
850.00	0.012
850.17	0.010
850.35	0.008
850.52	0.006
850.69	0.009
850.86	0.008
851.04	0.008
851.21	0.007
851.38	0.006
851.55	0.004
851.72	0.003
851.90	0.005
852.07	0.006
852.24	0.007
852.41	0.005
852.59	0.005
852.76	0.004
852.93	0.005
853.10	0.004
853.28	0.003
853.45	0.004
853.62	0.005
853.79	0.004
853.96	0.004
854.14	0.006
854.31	0.009
854.48	0.008
854.65	0.007
854.82	0.008
855.00	0.009
855.17	0.010
855.34	0.011
855.51	0.010
855.68	0.007
855.86	0.009
856.03	0.006
856.20	0.004
856.37	0.002
856.54	0.003
856.72	0.001
856.89	-0.002
857.06	-0.001
857.23	-0.002
857.40	-0.001
857.57	-0.001
857.75	-0.000
857.92	-0.000
858.09	-0.002
858.26	-0.000
858.43	-0.002
858.60	0.001
858.78	0.004
858.95	0.002
859.12	0.004
859.29	0.003
859.46	0.004
859.63	0.005
859.81	0.008
859.98	0.011
860.15	0.010
860.32	0.011
860.49	0.007
860.66	0.006
860.83	0.006
861.01	0.003
861.18	0.004
861.35	0.005
861.52	0.000
861.69	-0.004
861.86	-0.003
862.03	-0.003
862.21	-0.001
862.38	0.002
862.55	0.003
862.72	0.006
862.89	0.010
863.06	0.009
863.23	0.012
863.40	0.014
863.58	0.013
863.75	0.012
863.92	0.012
864.09	0.008
864.26	0.006
864.43	0.003
864.60	0.002
864.77	-0.001
864.94	0.002
865.11	-0.002
865.29	-0.003
865.46	-0.001
865.63	-0.001
865.80	0.001
865.97	0.005
866.14	0.007
866.31	0.005
866.48	0.003
866.65	0.007
866.82	0.008
866.99	0.006
867.16	0.005
867.34	0.002
867.51	0.004
867.68	0.002
867.85	-0.003
868.02	-0.008
868.19	-0.004
868.36	-0.004
868.53	-0.011
868.70	-0.016
868.87	-0.018
869.04	-0.015
869.21	-0.009
869.38	-0.014
869.55	-0.014
869.72	-0.011
869.89	-0.003
870.06	-0.005
870.24	0.002
870.41	0.002
870.58	0.002
870.75	0.009
870.92	0.010
871.09	0.007
871.26	0.012
871.43	0.015
871.60	0.015
871.77	0.009
871.94	0.014
872.11	0.010
872.28	0.010
872.45	0.014
872.62	0.006
872.79	0.003
872.96	0.004
873.13	-0.003
873.30	-0.005
873.47	-0.003
873.64	-0.002
873.81	-0.007
873.98	-0.010
874.15	-0.006
874.32	-0.011
874.49	-0.002
874.66	-0.002
874.83	0.001
875.00	0.004
875.17	0.006
875.34	0.005
875.51	0.007
875.68	0.008
875.85	0.010
876.02	0.008
876.19	0.014
876.36	0.009
876.53	0.016
876.70	0.017
876.87	0.016
877.04	0.013
877.21	0.014
877.38	0.013
877.55	0.015
877.72	0.014
877.89	0.013
878.06	0.005
878.23	0.009
878.39	0.004
878.56	0.008
878.73	0.013
878.90	0.011
879.07	0.013
879.24	0.009
879.41	0.014
879.58	0.015
879.75	0.016
879.92	0.021
880.09	0.016
880.26	0.021
880.43	0.015
880.60	0.013
880.77	0.018
880.94	0.017
881.11	0.018
881.27	0.017
881.44	0.017
881.61	0.019
881.78	0.021
881.95	0.024
882.12	0.022
882.29	0.018
882.46	0.013
882.63	0.018
882.80	0.018
882.97	0.018
883.14	0.017
883.30	0.013
883.47	0.007
883.64	0.005
883.81	0.005
883.98	0.005
884.15	0.006
884.32	0.013
884.49	0.005
884.66	-0.000
884.82	0.008
884.99	0.006
885.16	0.011
885.33	0.010
885.50	0.011
885.67	0.005
885.84	0.006
886.01	0.003
886.17	-0.003
886.34	0.007
886.51	0.017
886.68	0.008
886.85	0.014
887.02	0.017
887.19	0.013
887.36	0.006
887.52	0.015
887.69	0.017
887.86	0.027
888.03	0.033
888.20	0.032
888.37	0.020
888.54	0.025
888.70	0.021
888.87	0.018
889.04	0.027
889.21	0.024
889.38	0.024
889.55	0.018
889.71	0.031
889.88	-0.032
890.05	-0.106
890.22	0.053
890.39	-0.001
>>>>>End Processed Spectral Data<<<<<
