SpectraSuite Data File
++++++++++++++++++++++++++++++++++++
Date: Mon Jun 15 07:42:29 PDT 2015
User: introlabs
Dark Spectrum Present: Yes
Reference Spectrum Present: Yes
Number of Sampled Component Spectra: 1
Spectrometers: USB4H08886
Integration Time (usec): 44366 (USB4H08886)
Spectra Averaged: 20 (USB4H08886)
Boxcar Smoothing: 5 (USB4H08886)
Correct for Electrical Dark: Yes (USB4H08886)
Strobe/Lamp Enabled: No (USB4H08886)
Correct for Detector Non-linearity: Yes (USB4H08886)
Correct for Stray Light: Yes (USB4H08886)
Number of Pixels in Processed Spectrum: 3648
>>>>>Begin Processed Spectral Data<<<<<
178.14	0.204
178.36	0.204
178.57	0.204
178.79	-0.000
179.01	-0.746
179.22	0.574
179.44	-0.000
179.65	-0.325
179.87	-0.203
180.08	0.212
180.30	0.151
180.52	0.033
180.73	0.178
180.95	0.115
181.16	0.097
181.38	0.041
181.59	0.021
181.81	0.026
182.03	0.034
182.24	0.038
182.46	0.021
182.67	0.024
182.89	0.020
183.10	0.027
183.32	0.026
183.54	0.011
183.75	0.013
183.97	0.018
184.18	0.016
184.40	0.006
184.61	0.006
184.83	0.011
185.04	0.008
185.26	0.009
185.48	-0.001
185.69	0.006
185.91	0.009
186.12	0.003
186.34	0.005
186.55	-0.005
186.77	0.005
186.98	0.001
187.20	-0.005
187.42	-0.002
187.63	-0.001
187.85	0.008
188.06	0.001
188.28	0.010
188.49	0.021
188.71	0.022
188.92	0.026
189.14	0.020
189.36	0.023
189.57	0.025
189.79	0.019
190.00	0.017
190.22	0.008
190.43	0.012
190.65	0.002
190.86	0.006
191.08	0.006
191.29	0.003
191.51	0.005
191.72	0.007
191.94	0.010
192.16	0.008
192.37	0.008
192.59	0.019
192.80	0.018
193.02	0.021
193.23	0.023
193.45	0.017
193.66	0.022
193.88	0.027
194.09	0.026
194.31	0.029
194.52	0.025
194.74	0.026
194.95	0.020
195.17	0.019
195.38	0.021
195.60	0.013
195.81	0.020
196.03	0.016
196.25	0.019
196.46	0.012
196.68	0.014
196.89	0.022
197.11	0.018
197.32	0.019
197.54	0.007
197.75	0.021
197.97	0.018
198.18	0.016
198.40	0.024
198.61	0.018
198.83	0.016
199.04	0.011
199.26	0.008
199.47	0.002
199.69	0.008
199.90	0.026
200.12	0.017
200.33	0.017
200.55	0.015
200.76	0.005
200.98	0.001
201.19	0.001
201.41	-0.002
201.62	0.004
201.84	0.018
202.05	0.014
202.27	0.008
202.48	0.005
202.70	0.008
202.91	0.012
203.13	0.017
203.34	0.010
203.56	0.008
203.77	0.015
203.99	0.003
204.20	-0.002
204.42	-0.008
204.63	-0.008
204.85	-0.008
205.06	-0.014
205.28	-0.017
205.49	-0.019
205.71	-0.006
205.92	-0.001
206.14	-0.004
206.35	0.007
206.56	0.016
206.78	0.017
206.99	0.020
207.21	0.020
207.42	0.028
207.64	0.028
207.85	0.031
208.07	0.032
208.28	0.034
208.50	0.036
208.71	0.033
208.93	0.025
209.14	0.028
209.36	0.028
209.57	0.032
209.79	0.031
210.00	0.031
210.22	0.029
210.43	0.025
210.64	0.020
210.86	0.017
211.07	0.019
211.29	0.020
211.50	0.016
211.72	0.011
211.93	0.006
212.15	0.006
212.36	0.009
212.58	0.015
212.79	0.019
213.01	0.016
213.22	0.012
213.43	0.013
213.65	0.016
213.86	0.018
214.08	0.027
214.29	0.029
214.51	0.029
214.72	0.025
214.94	0.017
215.15	0.018
215.36	0.026
215.58	0.029
215.79	0.023
216.01	0.024
216.22	0.027
216.44	0.018
216.65	0.016
216.87	0.015
217.08	0.016
217.29	0.022
217.51	0.019
217.72	0.015
217.94	0.020
218.15	0.023
218.37	0.020
218.58	0.017
218.80	0.023
219.01	0.021
219.22	0.015
219.44	0.017
219.65	0.011
219.87	0.014
220.08	0.011
220.30	0.003
220.51	-0.001
220.72	-0.002
220.94	-0.007
221.15	-0.010
221.37	-0.013
221.58	-0.006
221.79	-0.003
222.01	-0.004
222.22	-0.010
222.44	-0.008
222.65	-0.006
222.87	-0.006
223.08	-0.005
223.29	-0.002
223.51	-0.001
223.72	0.007
223.94	0.007
224.15	-0.000
224.36	-0.000
224.58	0.000
224.79	0.006
225.01	-0.000
225.22	-0.001
225.44	0.001
225.65	0.006
225.86	0.007
226.08	0.006
226.29	0.003
226.51	0.013
226.72	0.014
226.93	0.014
227.15	0.008
227.36	0.015
227.58	0.017
227.79	0.020
228.00	0.018
228.22	0.013
228.43	0.010
228.65	0.012
228.86	0.009
229.07	0.012
229.29	0.012
229.50	0.015
229.72	0.016
229.93	0.015
230.14	0.013
230.36	0.011
230.57	0.011
230.78	0.010
231.00	0.007
231.21	0.004
231.43	0.005
231.64	0.005
231.85	0.006
232.07	0.005
232.28	0.008
232.50	0.005
232.71	0.006
232.92	0.008
233.14	0.009
233.35	0.013
233.56	0.014
233.78	0.009
233.99	0.010
234.21	0.011
234.42	0.011
234.63	0.010
234.85	0.012
235.06	0.010
235.27	0.011
235.49	0.013
235.70	0.011
235.91	0.011
236.13	0.015
236.34	0.012
236.56	0.011
236.77	0.011
236.98	0.011
237.20	0.009
237.41	0.010
237.62	0.010
237.84	0.009
238.05	0.009
238.26	0.008
238.48	0.008
238.69	0.009
238.91	0.009
239.12	0.010
239.33	0.010
239.55	0.012
239.76	0.012
239.97	0.012
240.19	0.013
240.40	0.013
240.61	0.014
240.83	0.013
241.04	0.013
241.25	0.013
241.47	0.013
241.68	0.015
241.89	0.014
242.11	0.014
242.32	0.014
242.53	0.014
242.75	0.014
242.96	0.015
243.17	0.015
243.39	0.015
243.60	0.015
243.81	0.015
244.03	0.014
244.24	0.015
244.45	0.015
244.67	0.015
244.88	0.016
245.09	0.016
245.31	0.017
245.52	0.016
245.73	0.016
245.95	0.017
246.16	0.017
246.37	0.017
246.59	0.017
246.80	0.017
247.01	0.017
247.23	0.017
247.44	0.016
247.65	0.016
247.87	0.017
248.08	0.016
248.29	0.016
248.51	0.016
248.72	0.016
248.93	0.016
249.15	0.017
249.36	0.017
249.57	0.016
249.78	0.016
250.00	0.016
250.21	0.016
250.42	0.017
250.64	0.017
250.85	0.017
251.06	0.016
251.28	0.017
251.49	0.016
251.70	0.016
251.92	0.016
252.13	0.017
252.34	0.017
252.55	0.016
252.77	0.016
252.98	0.016
253.19	0.016
253.41	0.016
253.62	0.016
253.83	0.016
254.05	0.016
254.26	0.016
254.47	0.016
254.68	0.016
254.90	0.016
255.11	0.017
255.32	0.017
255.54	0.017
255.75	0.017
255.96	0.016
256.17	0.016
256.39	0.017
256.60	0.016
256.81	0.016
257.03	0.016
257.24	0.016
257.45	0.016
257.66	0.015
257.88	0.015
258.09	0.015
258.30	0.015
258.51	0.015
258.73	0.015
258.94	0.015
259.15	0.015
259.37	0.014
259.58	0.014
259.79	0.014
260.00	0.014
260.22	0.014
260.43	0.015
260.64	0.014
260.85	0.014
261.07	0.015
261.28	0.015
261.49	0.014
261.71	0.014
261.92	0.014
262.13	0.014
262.34	0.014
262.56	0.014
262.77	0.014
262.98	0.014
263.19	0.014
263.41	0.014
263.62	0.013
263.83	0.013
264.04	0.013
264.26	0.013
264.47	0.013
264.68	0.013
264.89	0.013
265.11	0.013
265.32	0.013
265.53	0.013
265.74	0.013
265.96	0.013
266.17	0.013
266.38	0.013
266.59	0.013
266.81	0.013
267.02	0.012
267.23	0.012
267.44	0.011
267.65	0.011
267.87	0.011
268.08	0.011
268.29	0.011
268.50	0.011
268.72	0.011
268.93	0.011
269.14	0.011
269.35	0.011
269.57	0.011
269.78	0.011
269.99	0.011
270.20	0.012
270.41	0.011
270.63	0.011
270.84	0.010
271.05	0.010
271.26	0.010
271.48	0.010
271.69	0.010
271.90	0.010
272.11	0.010
272.32	0.010
272.54	0.009
272.75	0.009
272.96	0.009
273.17	0.010
273.39	0.010
273.60	0.010
273.81	0.010
274.02	0.010
274.23	0.010
274.45	0.010
274.66	0.010
274.87	0.010
275.08	0.009
275.29	0.009
275.51	0.010
275.72	0.009
275.93	0.009
276.14	0.009
276.35	0.009
276.57	0.009
276.78	0.009
276.99	0.009
277.20	0.009
277.41	0.009
277.63	0.009
277.84	0.009
278.05	0.009
278.26	0.009
278.47	0.009
278.69	0.009
278.90	0.009
279.11	0.009
279.32	0.009
279.53	0.009
279.74	0.009
279.96	0.009
280.17	0.009
280.38	0.009
280.59	0.009
280.80	0.009
281.02	0.009
281.23	0.009
281.44	0.009
281.65	0.009
281.86	0.009
282.07	0.009
282.29	0.009
282.50	0.009
282.71	0.009
282.92	0.010
283.13	0.009
283.35	0.009
283.56	0.009
283.77	0.009
283.98	0.010
284.19	0.010
284.40	0.010
284.62	0.010
284.83	0.010
285.04	0.010
285.25	0.010
285.46	0.011
285.67	0.011
285.88	0.011
286.10	0.011
286.31	0.012
286.52	0.012
286.73	0.012
286.94	0.012
287.15	0.012
287.37	0.012
287.58	0.012
287.79	0.012
288.00	0.013
288.21	0.013
288.42	0.013
288.63	0.013
288.85	0.013
289.06	0.013
289.27	0.013
289.48	0.013
289.69	0.013
289.90	0.013
290.11	0.013
290.33	0.014
290.54	0.014
290.75	0.014
290.96	0.014
291.17	0.014
291.38	0.014
291.59	0.014
291.81	0.014
292.02	0.014
292.23	0.014
292.44	0.014
292.65	0.014
292.86	0.014
293.07	0.014
293.28	0.014
293.50	0.014
293.71	0.015
293.92	0.014
294.13	0.015
294.34	0.015
294.55	0.015
294.76	0.015
294.97	0.015
295.19	0.015
295.40	0.015
295.61	0.015
295.82	0.014
296.03	0.014
296.24	0.014
296.45	0.014
296.66	0.014
296.87	0.014
297.09	0.013
297.30	0.014
297.51	0.014
297.72	0.013
297.93	0.014
298.14	0.014
298.35	0.014
298.56	0.014
298.77	0.013
298.99	0.014
299.20	0.014
299.41	0.014
299.62	0.014
299.83	0.014
300.04	0.014
300.25	0.014
300.46	0.014
300.67	0.014
300.88	0.014
301.10	0.014
301.31	0.014
301.52	0.014
301.73	0.014
301.94	0.014
302.15	0.013
302.36	0.013
302.57	0.013
302.78	0.013
302.99	0.013
303.20	0.013
303.41	0.013
303.63	0.013
303.84	0.013
304.05	0.013
304.26	0.013
304.47	0.013
304.68	0.013
304.89	0.013
305.10	0.013
305.31	0.013
305.52	0.013
305.73	0.013
305.94	0.013
306.15	0.013
306.37	0.013
306.58	0.013
306.79	0.013
307.00	0.013
307.21	0.013
307.42	0.013
307.63	0.013
307.84	0.013
308.05	0.013
308.26	0.013
308.47	0.013
308.68	0.013
308.89	0.013
309.10	0.013
309.31	0.013
309.52	0.013
309.73	0.013
309.95	0.013
310.16	0.013
310.37	0.013
310.58	0.012
310.79	0.012
311.00	0.012
311.21	0.012
311.42	0.012
311.63	0.012
311.84	0.012
312.05	0.012
312.26	0.012
312.47	0.012
312.68	0.012
312.89	0.012
313.10	0.012
313.31	0.012
313.52	0.012
313.73	0.013
313.94	0.013
314.15	0.012
314.36	0.013
314.57	0.013
314.78	0.013
314.99	0.012
315.21	0.013
315.42	0.013
315.63	0.013
315.84	0.013
316.05	0.013
316.26	0.013
316.47	0.013
316.68	0.013
316.89	0.013
317.10	0.013
317.31	0.013
317.52	0.013
317.73	0.013
317.94	0.013
318.15	0.013
318.36	0.013
318.57	0.013
318.78	0.013
318.99	0.013
319.20	0.013
319.41	0.013
319.62	0.013
319.83	0.013
320.04	0.013
320.25	0.012
320.46	0.012
320.67	0.012
320.88	0.012
321.09	0.012
321.30	0.012
321.51	0.012
321.72	0.012
321.93	0.012
322.14	0.012
322.35	0.012
322.56	0.012
322.77	0.012
322.98	0.012
323.19	0.012
323.40	0.012
323.61	0.012
323.82	0.012
324.03	0.012
324.24	0.012
324.45	0.012
324.66	0.012
324.87	0.012
325.08	0.012
325.29	0.012
325.50	0.012
325.71	0.012
325.92	0.012
326.13	0.012
326.34	0.012
326.55	0.012
326.76	0.012
326.97	0.012
327.18	0.012
327.39	0.012
327.60	0.012
327.80	0.012
328.01	0.012
328.22	0.012
328.43	0.012
328.64	0.012
328.85	0.012
329.06	0.012
329.27	0.012
329.48	0.011
329.69	0.011
329.90	0.011
330.11	0.012
330.32	0.012
330.53	0.012
330.74	0.011
330.95	0.011
331.16	0.011
331.37	0.012
331.58	0.012
331.79	0.012
332.00	0.012
332.21	0.012
332.42	0.011
332.63	0.011
332.83	0.011
333.04	0.011
333.25	0.011
333.46	0.011
333.67	0.011
333.88	0.011
334.09	0.011
334.30	0.011
334.51	0.011
334.72	0.011
334.93	0.011
335.14	0.011
335.35	0.011
335.56	0.011
335.77	0.011
335.98	0.011
336.18	0.011
336.39	0.011
336.60	0.011
336.81	0.011
337.02	0.011
337.23	0.011
337.44	0.011
337.65	0.011
337.86	0.011
338.07	0.011
338.28	0.011
338.49	0.011
338.70	0.011
338.91	0.011
339.11	0.011
339.32	0.011
339.53	0.011
339.74	0.011
339.95	0.010
340.16	0.010
340.37	0.010
340.58	0.010
340.79	0.010
341.00	0.010
341.21	0.010
341.41	0.010
341.62	0.010
341.83	0.010
342.04	0.010
342.25	0.010
342.46	0.010
342.67	0.010
342.88	0.010
343.09	0.010
343.30	0.010
343.50	0.010
343.71	0.010
343.92	0.010
344.13	0.010
344.34	0.010
344.55	0.010
344.76	0.010
344.97	0.010
345.18	0.010
345.38	0.010
345.59	0.010
345.80	0.010
346.01	0.010
346.22	0.010
346.43	0.010
346.64	0.009
346.85	0.009
347.06	0.009
347.26	0.009
347.47	0.009
347.68	0.009
347.89	0.009
348.10	0.009
348.31	0.009
348.52	0.009
348.73	0.009
348.93	0.009
349.14	0.009
349.35	0.009
349.56	0.009
349.77	0.009
349.98	0.009
350.19	0.009
350.39	0.009
350.60	0.009
350.81	0.009
351.02	0.009
351.23	0.009
351.44	0.009
351.65	0.009
351.86	0.009
352.06	0.009
352.27	0.009
352.48	0.009
352.69	0.009
352.90	0.009
353.11	0.009
353.31	0.009
353.52	0.009
353.73	0.009
353.94	0.009
354.15	0.009
354.36	0.009
354.57	0.009
354.77	0.009
354.98	0.009
355.19	0.009
355.40	0.009
355.61	0.009
355.82	0.009
356.02	0.009
356.23	0.009
356.44	0.009
356.65	0.009
356.86	0.009
357.07	0.008
357.27	0.009
357.48	0.009
357.69	0.008
357.90	0.009
358.11	0.009
358.32	0.009
358.52	0.009
358.73	0.009
358.94	0.009
359.15	0.009
359.36	0.009
359.56	0.009
359.77	0.009
359.98	0.009
360.19	0.008
360.40	0.008
360.61	0.008
360.81	0.008
361.02	0.008
361.23	0.008
361.44	0.008
361.65	0.008
361.85	0.008
362.06	0.008
362.27	0.008
362.48	0.008
362.69	0.008
362.89	0.008
363.10	0.008
363.31	0.008
363.52	0.008
363.73	0.008
363.93	0.008
364.14	0.008
364.35	0.008
364.56	0.008
364.77	0.008
364.97	0.008
365.18	0.008
365.39	0.008
365.60	0.008
365.81	0.008
366.01	0.008
366.22	0.008
366.43	0.008
366.64	0.008
366.84	0.008
367.05	0.008
367.26	0.008
367.47	0.008
367.68	0.008
367.88	0.008
368.09	0.008
368.30	0.008
368.51	0.008
368.71	0.008
368.92	0.008
369.13	0.008
369.34	0.008
369.55	0.008
369.75	0.008
369.96	0.008
370.17	0.008
370.38	0.008
370.58	0.007
370.79	0.007
371.00	0.007
371.21	0.007
371.41	0.007
371.62	0.007
371.83	0.007
372.04	0.008
372.24	0.008
372.45	0.008
372.66	0.008
372.87	0.008
373.07	0.008
373.28	0.008
373.49	0.008
373.70	0.008
373.90	0.008
374.11	0.007
374.32	0.007
374.53	0.007
374.73	0.007
374.94	0.007
375.15	0.007
375.36	0.007
375.56	0.007
375.77	0.007
375.98	0.007
376.19	0.007
376.39	0.007
376.60	0.007
376.81	0.007
377.02	0.007
377.22	0.007
377.43	0.007
377.64	0.007
377.84	0.007
378.05	0.007
378.26	0.007
378.47	0.007
378.67	0.007
378.88	0.007
379.09	0.007
379.30	0.007
379.50	0.007
379.71	0.007
379.92	0.007
380.12	0.007
380.33	0.007
380.54	0.007
380.75	0.007
380.95	0.007
381.16	0.007
381.37	0.007
381.57	0.007
381.78	0.007
381.99	0.007
382.20	0.007
382.40	0.007
382.61	0.007
382.82	0.007
383.02	0.007
383.23	0.007
383.44	0.007
383.64	0.007
383.85	0.007
384.06	0.007
384.27	0.007
384.47	0.007
384.68	0.007
384.89	0.007
385.09	0.007
385.30	0.006
385.51	0.006
385.71	0.006
385.92	0.006
386.13	0.006
386.33	0.006
386.54	0.006
386.75	0.006
386.95	0.006
387.16	0.006
387.37	0.006
387.58	0.007
387.78	0.007
387.99	0.007
388.20	0.007
388.40	0.007
388.61	0.007
388.82	0.007
389.02	0.007
389.23	0.007
389.44	0.007
389.64	0.007
389.85	0.007
390.06	0.007
390.26	0.007
390.47	0.007
390.68	0.006
390.88	0.007
391.09	0.007
391.30	0.006
391.50	0.006
391.71	0.006
391.92	0.006
392.12	0.006
392.33	0.006
392.53	0.006
392.74	0.006
392.95	0.006
393.15	0.006
393.36	0.006
393.57	0.006
393.77	0.006
393.98	0.006
394.19	0.006
394.39	0.006
394.60	0.006
394.81	0.006
395.01	0.006
395.22	0.006
395.43	0.006
395.63	0.006
395.84	0.006
396.04	0.006
396.25	0.006
396.46	0.006
396.66	0.006
396.87	0.006
397.08	0.006
397.28	0.006
397.49	0.006
397.69	0.006
397.90	0.006
398.11	0.006
398.31	0.006
398.52	0.006
398.73	0.006
398.93	0.006
399.14	0.006
399.34	0.006
399.55	0.006
399.76	0.006
399.96	0.006
400.17	0.006
400.37	0.006
400.58	0.006
400.79	0.006
400.99	0.006
401.20	0.006
401.41	0.006
401.61	0.006
401.82	0.006
402.02	0.006
402.23	0.006
402.44	0.006
402.64	0.006
402.85	0.006
403.05	0.006
403.26	0.006
403.47	0.006
403.67	0.006
403.88	0.006
404.08	0.006
404.29	0.006
404.50	0.006
404.70	0.006
404.91	0.005
405.11	0.006
405.32	0.006
405.52	0.006
405.73	0.005
405.94	0.005
406.14	0.005
406.35	0.005
406.55	0.005
406.76	0.005
406.97	0.005
407.17	0.005
407.38	0.005
407.58	0.005
407.79	0.005
407.99	0.005
408.20	0.005
408.41	0.006
408.61	0.006
408.82	0.006
409.02	0.006
409.23	0.006
409.43	0.006
409.64	0.006
409.84	0.006
410.05	0.006
410.26	0.006
410.46	0.006
410.67	0.006
410.87	0.006
411.08	0.006
411.28	0.006
411.49	0.006
411.69	0.006
411.90	0.006
412.11	0.006
412.31	0.006
412.52	0.006
412.72	0.006
412.93	0.006
413.13	0.006
413.34	0.006
413.54	0.006
413.75	0.006
413.95	0.006
414.16	0.005
414.37	0.005
414.57	0.005
414.78	0.005
414.98	0.005
415.19	0.005
415.39	0.005
415.60	0.005
415.80	0.005
416.01	0.005
416.21	0.005
416.42	0.005
416.62	0.005
416.83	0.005
417.03	0.005
417.24	0.005
417.44	0.005
417.65	0.005
417.86	0.005
418.06	0.005
418.27	0.005
418.47	0.005
418.68	0.005
418.88	0.005
419.09	0.005
419.29	0.005
419.50	0.005
419.70	0.005
419.91	0.005
420.11	0.005
420.32	0.005
420.52	0.005
420.73	0.005
420.93	0.005
421.14	0.005
421.34	0.005
421.55	0.005
421.75	0.005
421.96	0.005
422.16	0.005
422.37	0.005
422.57	0.005
422.78	0.005
422.98	0.005
423.19	0.005
423.39	0.005
423.60	0.005
423.80	0.005
424.01	0.005
424.21	0.005
424.42	0.005
424.62	0.005
424.83	0.005
425.03	0.005
425.23	0.005
425.44	0.005
425.64	0.005
425.85	0.005
426.05	0.005
426.26	0.005
426.46	0.005
426.67	0.005
426.87	0.005
427.08	0.005
427.28	0.005
427.49	0.005
427.69	0.005
427.90	0.005
428.10	0.005
428.31	0.005
428.51	0.005
428.71	0.005
428.92	0.005
429.12	0.005
429.33	0.005
429.53	0.005
429.74	0.005
429.94	0.005
430.15	0.005
430.35	0.005
430.56	0.005
430.76	0.005
430.96	0.005
431.17	0.005
431.37	0.005
431.58	0.005
431.78	0.005
431.99	0.005
432.19	0.005
432.40	0.005
432.60	0.005
432.80	0.005
433.01	0.005
433.21	0.005
433.42	0.005
433.62	0.005
433.83	0.005
434.03	0.005
434.23	0.005
434.44	0.005
434.64	0.005
434.85	0.005
435.05	0.005
435.26	0.005
435.46	0.005
435.66	0.005
435.87	0.005
436.07	0.005
436.28	0.005
436.48	0.005
436.69	0.005
436.89	0.004
437.09	0.004
437.30	0.004
437.50	0.004
437.71	0.004
437.91	0.004
438.11	0.004
438.32	0.004
438.52	0.004
438.73	0.005
438.93	0.005
439.13	0.005
439.34	0.005
439.54	0.005
439.75	0.005
439.95	0.005
440.15	0.005
440.36	0.005
440.56	0.005
440.77	0.005
440.97	0.005
441.17	0.005
441.38	0.005
441.58	0.005
441.79	0.005
441.99	0.005
442.19	0.005
442.40	0.005
442.60	0.005
442.81	0.005
443.01	0.005
443.21	0.005
443.42	0.005
443.62	0.005
443.82	0.005
444.03	0.004
444.23	0.004
444.44	0.004
444.64	0.004
444.84	0.004
445.05	0.004
445.25	0.004
445.45	0.004
445.66	0.004
445.86	0.004
446.06	0.004
446.27	0.004
446.47	0.004
446.68	0.004
446.88	0.004
447.08	0.005
447.29	0.004
447.49	0.005
447.69	0.004
447.90	0.004
448.10	0.004
448.30	0.005
448.51	0.004
448.71	0.004
448.91	0.004
449.12	0.004
449.32	0.004
449.52	0.004
449.73	0.004
449.93	0.004
450.14	0.004
450.34	0.004
450.54	0.004
450.75	0.004
450.95	0.004
451.15	0.004
451.36	0.004
451.56	0.004
451.76	0.004
451.97	0.004
452.17	0.004
452.37	0.004
452.58	0.004
452.78	0.004
452.98	0.004
453.19	0.004
453.39	0.004
453.59	0.004
453.79	0.004
454.00	0.004
454.20	0.004
454.40	0.004
454.61	0.004
454.81	0.004
455.01	0.004
455.22	0.004
455.42	0.004
455.62	0.004
455.83	0.004
456.03	0.004
456.23	0.004
456.44	0.004
456.64	0.004
456.84	0.004
457.04	0.004
457.25	0.004
457.45	0.004
457.65	0.004
457.86	0.004
458.06	0.004
458.26	0.004
458.47	0.004
458.67	0.004
458.87	0.004
459.07	0.004
459.28	0.004
459.48	0.004
459.68	0.004
459.89	0.004
460.09	0.004
460.29	0.004
460.49	0.004
460.70	0.004
460.90	0.004
461.10	0.004
461.31	0.004
461.51	0.004
461.71	0.005
461.91	0.005
462.12	0.005
462.32	0.005
462.52	0.005
462.72	0.005
462.93	0.005
463.13	0.004
463.33	0.004
463.53	0.004
463.74	0.004
463.94	0.004
464.14	0.004
464.35	0.004
464.55	0.004
464.75	0.004
464.95	0.004
465.16	0.004
465.36	0.004
465.56	0.004
465.76	0.004
465.97	0.004
466.17	0.004
466.37	0.004
466.57	0.004
466.78	0.004
466.98	0.004
467.18	0.004
467.38	0.004
467.59	0.004
467.79	0.004
467.99	0.004
468.19	0.004
468.39	0.004
468.60	0.004
468.80	0.004
469.00	0.004
469.20	0.004
469.41	0.004
469.61	0.004
469.81	0.004
470.01	0.004
470.22	0.004
470.42	0.004
470.62	0.004
470.82	0.004
471.02	0.004
471.23	0.004
471.43	0.004
471.63	0.004
471.83	0.004
472.04	0.004
472.24	0.004
472.44	0.004
472.64	0.004
472.84	0.004
473.05	0.004
473.25	0.004
473.45	0.003
473.65	0.004
473.85	0.004
474.06	0.004
474.26	0.004
474.46	0.004
474.66	0.004
474.86	0.004
475.07	0.004
475.27	0.004
475.47	0.004
475.67	0.004
475.87	0.004
476.08	0.004
476.28	0.004
476.48	0.004
476.68	0.004
476.88	0.004
477.09	0.004
477.29	0.004
477.49	0.004
477.69	0.004
477.89	0.004
478.09	0.004
478.30	0.004
478.50	0.004
478.70	0.004
478.90	0.004
479.10	0.004
479.31	0.003
479.51	0.004
479.71	0.003
479.91	0.004
480.11	0.004
480.31	0.004
480.52	0.004
480.72	0.004
480.92	0.004
481.12	0.004
481.32	0.004
481.52	0.004
481.72	0.004
481.93	0.004
482.13	0.004
482.33	0.004
482.53	0.004
482.73	0.003
482.93	0.004
483.14	0.003
483.34	0.004
483.54	0.003
483.74	0.003
483.94	0.004
484.14	0.004
484.34	0.004
484.55	0.004
484.75	0.004
484.95	0.004
485.15	0.004
485.35	0.004
485.55	0.004
485.75	0.004
485.96	0.004
486.16	0.004
486.36	0.004
486.56	0.003
486.76	0.003
486.96	0.003
487.16	0.003
487.36	0.003
487.57	0.003
487.77	0.003
487.97	0.003
488.17	0.003
488.37	0.003
488.57	0.003
488.77	0.003
488.97	0.004
489.18	0.004
489.38	0.004
489.58	0.004
489.78	0.004
489.98	0.004
490.18	0.004
490.38	0.004
490.58	0.004
490.78	0.004
490.98	0.004
491.19	0.004
491.39	0.004
491.59	0.004
491.79	0.004
491.99	0.004
492.19	0.004
492.39	0.004
492.59	0.003
492.79	0.003
492.99	0.003
493.20	0.003
493.40	0.004
493.60	0.004
493.80	0.004
494.00	0.004
494.20	0.004
494.40	0.004
494.60	0.004
494.80	0.004
495.00	0.004
495.20	0.004
495.40	0.004
495.61	0.004
495.81	0.004
496.01	0.004
496.21	0.004
496.41	0.004
496.61	0.004
496.81	0.004
497.01	0.004
497.21	0.004
497.41	0.004
497.61	0.004
497.81	0.004
498.01	0.004
498.21	0.004
498.41	0.004
498.61	0.004
498.82	0.004
499.02	0.004
499.22	0.004
499.42	0.003
499.62	0.003
499.82	0.004
500.02	0.003
500.22	0.003
500.42	0.003
500.62	0.003
500.82	0.003
501.02	0.003
501.22	0.003
501.42	0.003
501.62	0.003
501.82	0.003
502.02	0.003
502.22	0.003
502.42	0.003
502.62	0.003
502.82	0.003
503.02	0.003
503.22	0.003
503.42	0.003
503.63	0.004
503.83	0.003
504.03	0.003
504.23	0.003
504.43	0.003
504.63	0.003
504.83	0.003
505.03	0.004
505.23	0.003
505.43	0.004
505.63	0.003
505.83	0.003
506.03	0.003
506.23	0.003
506.43	0.004
506.63	0.003
506.83	0.003
507.03	0.003
507.23	0.003
507.43	0.003
507.63	0.003
507.83	0.003
508.03	0.003
508.23	0.003
508.43	0.003
508.63	0.003
508.83	0.003
509.03	0.004
509.23	0.003
509.43	0.003
509.63	0.003
509.83	0.003
510.03	0.003
510.23	0.003
510.43	0.003
510.63	0.003
510.83	0.003
511.03	0.003
511.23	0.003
511.43	0.003
511.63	0.003
511.83	0.003
512.03	0.003
512.22	0.003
512.42	0.003
512.62	0.003
512.82	0.003
513.02	0.003
513.22	0.003
513.42	0.003
513.62	0.003
513.82	0.003
514.02	0.003
514.22	0.003
514.42	0.003
514.62	0.003
514.82	0.003
515.02	0.003
515.22	0.003
515.42	0.003
515.62	0.003
515.82	0.003
516.02	0.003
516.22	0.003
516.42	0.003
516.62	0.003
516.82	0.003
517.01	0.003
517.21	0.003
517.41	0.003
517.61	0.003
517.81	0.003
518.01	0.003
518.21	0.003
518.41	0.003
518.61	0.003
518.81	0.003
519.01	0.003
519.21	0.003
519.41	0.003
519.61	0.003
519.81	0.003
520.00	0.003
520.20	0.003
520.40	0.003
520.60	0.003
520.80	0.003
521.00	0.003
521.20	0.003
521.40	0.003
521.60	0.003
521.80	0.003
522.00	0.003
522.20	0.003
522.39	0.003
522.59	0.003
522.79	0.003
522.99	0.003
523.19	0.003
523.39	0.003
523.59	0.003
523.79	0.003
523.99	0.003
524.19	0.003
524.38	0.003
524.58	0.003
524.78	0.003
524.98	0.003
525.18	0.003
525.38	0.003
525.58	0.003
525.78	0.003
525.98	0.003
526.18	0.003
526.37	0.003
526.57	0.003
526.77	0.003
526.97	0.003
527.17	0.003
527.37	0.003
527.57	0.003
527.77	0.003
527.96	0.003
528.16	0.003
528.36	0.003
528.56	0.003
528.76	0.003
528.96	0.003
529.16	0.003
529.36	0.003
529.55	0.003
529.75	0.003
529.95	0.003
530.15	0.003
530.35	0.003
530.55	0.003
530.75	0.003
530.94	0.003
531.14	0.003
531.34	0.003
531.54	0.003
531.74	0.003
531.94	0.003
532.13	0.004
532.33	0.003
532.53	0.003
532.73	0.003
532.93	0.003
533.13	0.003
533.33	0.003
533.52	0.003
533.72	0.003
533.92	0.003
534.12	0.003
534.32	0.003
534.52	0.003
534.71	0.003
534.91	0.003
535.11	0.003
535.31	0.003
535.51	0.003
535.71	0.003
535.90	0.003
536.10	0.003
536.30	0.003
536.50	0.003
536.70	0.003
536.89	0.003
537.09	0.003
537.29	0.003
537.49	0.003
537.69	0.003
537.89	0.003
538.08	0.003
538.28	0.003
538.48	0.003
538.68	0.003
538.88	0.003
539.07	0.003
539.27	0.003
539.47	0.003
539.67	0.003
539.87	0.003
540.06	0.003
540.26	0.003
540.46	0.003
540.66	0.003
540.86	0.003
541.05	0.003
541.25	0.003
541.45	0.003
541.65	0.003
541.84	0.003
542.04	0.003
542.24	0.003
542.44	0.003
542.64	0.003
542.83	0.003
543.03	0.003
543.23	0.003
543.43	0.003
543.62	0.003
543.82	0.003
544.02	0.003
544.22	0.003
544.42	0.003
544.61	0.003
544.81	0.003
545.01	0.003
545.21	0.003
545.40	0.003
545.60	0.003
545.80	0.003
546.00	0.003
546.19	0.003
546.39	0.003
546.59	0.003
546.79	0.003
546.98	0.003
547.18	0.003
547.38	0.003
547.58	0.003
547.77	0.003
547.97	0.003
548.17	0.003
548.37	0.003
548.56	0.003
548.76	0.003
548.96	0.003
549.16	0.003
549.35	0.003
549.55	0.003
549.75	0.003
549.95	0.003
550.14	0.003
550.34	0.003
550.54	0.003
550.73	0.003
550.93	0.003
551.13	0.003
551.33	0.003
551.52	0.003
551.72	0.003
551.92	0.003
552.12	0.003
552.31	0.003
552.51	0.003
552.71	0.003
552.90	0.003
553.10	0.003
553.30	0.003
553.50	0.003
553.69	0.003
553.89	0.003
554.09	0.003
554.28	0.003
554.48	0.003
554.68	0.003
554.87	0.003
555.07	0.003
555.27	0.003
555.47	0.003
555.66	0.003
555.86	0.003
556.06	0.003
556.25	0.003
556.45	0.003
556.65	0.003
556.84	0.003
557.04	0.003
557.24	0.003
557.43	0.003
557.63	0.003
557.83	0.003
558.02	0.003
558.22	0.003
558.42	0.003
558.61	0.003
558.81	0.003
559.01	0.003
559.21	0.003
559.40	0.003
559.60	0.003
559.80	0.003
559.99	0.003
560.19	0.003
560.39	0.003
560.58	0.003
560.78	0.003
560.97	0.003
561.17	0.003
561.37	0.003
561.56	0.003
561.76	0.003
561.96	0.003
562.15	0.003
562.35	0.003
562.55	0.003
562.74	0.003
562.94	0.003
563.14	0.003
563.33	0.003
563.53	0.003
563.73	0.003
563.92	0.003
564.12	0.002
564.31	0.002
564.51	0.002
564.71	0.002
564.90	0.003
565.10	0.003
565.30	0.003
565.49	0.003
565.69	0.003
565.89	0.003
566.08	0.003
566.28	0.003
566.47	0.003
566.67	0.003
566.87	0.003
567.06	0.003
567.26	0.003
567.46	0.003
567.65	0.003
567.85	0.003
568.04	0.003
568.24	0.003
568.44	0.003
568.63	0.003
568.83	0.003
569.02	0.003
569.22	0.003
569.42	0.003
569.61	0.003
569.81	0.003
570.00	0.003
570.20	0.003
570.40	0.003
570.59	0.003
570.79	0.003
570.98	0.003
571.18	0.003
571.38	0.003
571.57	0.003
571.77	0.003
571.96	0.003
572.16	0.003
572.35	0.003
572.55	0.003
572.75	0.003
572.94	0.003
573.14	0.003
573.33	0.003
573.53	0.003
573.73	0.003
573.92	0.003
574.12	0.003
574.31	0.003
574.51	0.003
574.70	0.003
574.90	0.002
575.09	0.002
575.29	0.002
575.49	0.001
575.68	0.001
575.88	0.001
576.07	0.001
576.27	0.000
576.46	0.000
576.66	0.000
576.86	0.000
577.05	0.000
577.25	0.000
577.44	0.000
577.64	0.000
577.83	0.000
578.03	0.000
578.22	0.000
578.42	0.000
578.61	0.000
578.81	0.000
579.00	0.000
579.20	0.000
579.40	0.000
579.59	0.000
579.79	0.000
579.98	0.000
580.18	0.000
580.37	0.000
580.57	0.000
580.76	0.000
580.96	0.000
581.15	0.000
581.35	0.000
581.54	0.000
581.74	0.000
581.93	0.000
582.13	0.000
582.32	0.000
582.52	0.000
582.71	0.000
582.91	0.000
583.10	0.000
583.30	0.000
583.49	0.000
583.69	0.000
583.88	0.000
584.08	0.000
584.27	0.000
584.47	0.000
584.66	0.000
584.86	0.000
585.05	0.000
585.25	0.000
585.44	0.000
585.64	0.000
585.83	0.000
586.03	0.000
586.22	0.000
586.42	0.000
586.61	0.000
586.81	0.001
587.00	0.001
587.20	0.001
587.39	0.001
587.59	0.002
587.78	0.002
587.98	0.002
588.17	0.002
588.37	0.003
588.56	0.003
588.76	0.003
588.95	0.003
589.15	0.002
589.34	0.002
589.54	0.002
589.73	0.002
589.92	0.002
590.12	0.002
590.31	0.002
590.51	0.002
590.70	0.002
590.90	0.002
591.09	0.003
591.29	0.003
591.48	0.003
591.68	0.003
591.87	0.003
592.06	0.003
592.26	0.003
592.45	0.003
592.65	0.003
592.84	0.003
593.04	0.003
593.23	0.003
593.43	0.003
593.62	0.003
593.81	0.003
594.01	0.003
594.20	0.002
594.40	0.002
594.59	0.002
594.79	0.002
594.98	0.002
595.17	0.002
595.37	0.002
595.56	0.002
595.76	0.002
595.95	0.003
596.14	0.002
596.34	0.003
596.53	0.003
596.73	0.003
596.92	0.003
597.12	0.003
597.31	0.003
597.50	0.003
597.70	0.003
597.89	0.003
598.09	0.003
598.28	0.003
598.47	0.003
598.67	0.003
598.86	0.002
599.06	0.002
599.25	0.002
599.44	0.002
599.64	0.002
599.83	0.002
600.03	0.002
600.22	0.002
600.41	0.002
600.61	0.002
600.80	0.002
601.00	0.002
601.19	0.002
601.38	0.002
601.58	0.002
601.77	0.002
601.96	0.002
602.16	0.002
602.35	0.002
602.55	0.002
602.74	0.002
602.93	0.002
603.13	0.002
603.32	0.002
603.51	0.002
603.71	0.003
603.90	0.003
604.09	0.003
604.29	0.002
604.48	0.002
604.68	0.002
604.87	0.002
605.06	0.002
605.26	0.002
605.45	0.002
605.64	0.002
605.84	0.002
606.03	0.002
606.22	0.002
606.42	0.002
606.61	0.002
606.80	0.002
607.00	0.002
607.19	0.002
607.38	0.002
607.58	0.002
607.77	0.002
607.96	0.002
608.16	0.002
608.35	0.003
608.54	0.003
608.74	0.002
608.93	0.003
609.12	0.003
609.32	0.003
609.51	0.003
609.70	0.003
609.90	0.003
610.09	0.003
610.28	0.003
610.48	0.003
610.67	0.003
610.86	0.003
611.06	0.003
611.25	0.003
611.44	0.003
611.64	0.003
611.83	0.003
612.02	0.003
612.21	0.003
612.41	0.003
612.60	0.003
612.79	0.003
612.99	0.003
613.18	0.003
613.37	0.003
613.57	0.003
613.76	0.003
613.95	0.003
614.14	0.002
614.34	0.002
614.53	0.002
614.72	0.002
614.92	0.002
615.11	0.002
615.30	0.002
615.49	0.002
615.69	0.002
615.88	0.002
616.07	0.002
616.26	0.002
616.46	0.002
616.65	0.002
616.84	0.002
617.04	0.003
617.23	0.002
617.42	0.002
617.61	0.002
617.81	0.003
618.00	0.003
618.19	0.003
618.38	0.003
618.58	0.003
618.77	0.003
618.96	0.003
619.15	0.002
619.35	0.002
619.54	0.002
619.73	0.003
619.92	0.003
620.12	0.003
620.31	0.003
620.50	0.003
620.69	0.003
620.89	0.003
621.08	0.003
621.27	0.003
621.46	0.003
621.66	0.003
621.85	0.003
622.04	0.003
622.23	0.003
622.43	0.003
622.62	0.002
622.81	0.002
623.00	0.002
623.19	0.002
623.39	0.002
623.58	0.002
623.77	0.002
623.96	0.002
624.16	0.002
624.35	0.002
624.54	0.002
624.73	0.002
624.92	0.002
625.12	0.002
625.31	0.002
625.50	0.002
625.69	0.002
625.88	0.002
626.08	0.002
626.27	0.003
626.46	0.003
626.65	0.003
626.84	0.003
627.04	0.003
627.23	0.003
627.42	0.003
627.61	0.003
627.80	0.003
628.00	0.003
628.19	0.003
628.38	0.003
628.57	0.003
628.76	0.003
628.96	0.003
629.15	0.002
629.34	0.003
629.53	0.003
629.72	0.003
629.91	0.003
630.11	0.003
630.30	0.003
630.49	0.003
630.68	0.003
630.87	0.003
631.06	0.003
631.26	0.003
631.45	0.003
631.64	0.003
631.83	0.003
632.02	0.003
632.21	0.003
632.41	0.003
632.60	0.003
632.79	0.003
632.98	0.003
633.17	0.003
633.36	0.003
633.55	0.003
633.75	0.003
633.94	0.003
634.13	0.003
634.32	0.003
634.51	0.003
634.70	0.003
634.89	0.003
635.09	0.003
635.28	0.003
635.47	0.003
635.66	0.003
635.85	0.003
636.04	0.003
636.23	0.003
636.43	0.003
636.62	0.003
636.81	0.003
637.00	0.003
637.19	0.003
637.38	0.003
637.57	0.003
637.76	0.003
637.95	0.003
638.15	0.003
638.34	0.003
638.53	0.003
638.72	0.003
638.91	0.003
639.10	0.003
639.29	0.003
639.48	0.003
639.67	0.003
639.87	0.003
640.06	0.003
640.25	0.003
640.44	0.003
640.63	0.003
640.82	0.003
641.01	0.003
641.20	0.003
641.39	0.003
641.58	0.003
641.78	0.003
641.97	0.003
642.16	0.003
642.35	0.003
642.54	0.003
642.73	0.003
642.92	0.003
643.11	0.003
643.30	0.003
643.49	0.003
643.68	0.002
643.87	0.002
644.06	0.003
644.25	0.003
644.45	0.003
644.64	0.003
644.83	0.003
645.02	0.003
645.21	0.003
645.40	0.003
645.59	0.003
645.78	0.003
645.97	0.003
646.16	0.003
646.35	0.003
646.54	0.003
646.73	0.003
646.92	0.003
647.11	0.003
647.30	0.003
647.49	0.003
647.68	0.003
647.88	0.003
648.07	0.003
648.26	0.003
648.45	0.003
648.64	0.002
648.83	0.002
649.02	0.002
649.21	0.002
649.40	0.002
649.59	0.003
649.78	0.003
649.97	0.003
650.16	0.003
650.35	0.003
650.54	0.002
650.73	0.002
650.92	0.003
651.11	0.003
651.30	0.003
651.49	0.003
651.68	0.002
651.87	0.002
652.06	0.002
652.25	0.003
652.44	0.003
652.63	0.003
652.82	0.003
653.01	0.003
653.20	0.003
653.39	0.003
653.58	0.003
653.77	0.003
653.96	0.003
654.15	0.003
654.34	0.003
654.53	0.003
654.72	0.003
654.91	0.003
655.10	0.003
655.29	0.003
655.48	0.003
655.67	0.003
655.86	0.003
656.05	0.003
656.24	0.002
656.43	0.002
656.62	0.002
656.81	0.002
657.00	0.002
657.19	0.002
657.38	0.002
657.57	0.002
657.76	0.002
657.95	0.002
658.14	0.001
658.33	0.001
658.51	0.001
658.70	0.001
658.89	0.002
659.08	0.002
659.27	0.002
659.46	0.002
659.65	0.002
659.84	0.002
660.03	0.002
660.22	0.003
660.41	0.003
660.60	0.003
660.79	0.003
660.98	0.003
661.17	0.003
661.36	0.003
661.55	0.003
661.74	0.003
661.92	0.003
662.11	0.003
662.30	0.003
662.49	0.003
662.68	0.003
662.87	0.003
663.06	0.003
663.25	0.003
663.44	0.003
663.63	0.003
663.82	0.003
664.01	0.003
664.20	0.003
664.38	0.003
664.57	0.003
664.76	0.003
664.95	0.003
665.14	0.003
665.33	0.003
665.52	0.003
665.71	0.003
665.90	0.003
666.09	0.003
666.28	0.002
666.46	0.002
666.65	0.002
666.84	0.002
667.03	0.002
667.22	0.002
667.41	0.002
667.60	0.002
667.79	0.002
667.98	0.002
668.16	0.002
668.35	0.002
668.54	0.002
668.73	0.003
668.92	0.003
669.11	0.003
669.30	0.003
669.49	0.003
669.67	0.003
669.86	0.003
670.05	0.003
670.24	0.003
670.43	0.003
670.62	0.003
670.81	0.003
671.00	0.003
671.18	0.003
671.37	0.003
671.56	0.003
671.75	0.003
671.94	0.003
672.13	0.003
672.32	0.003
672.50	0.003
672.69	0.003
672.88	0.003
673.07	0.003
673.26	0.003
673.45	0.003
673.63	0.003
673.82	0.003
674.01	0.003
674.20	0.003
674.39	0.003
674.58	0.003
674.76	0.003
674.95	0.003
675.14	0.003
675.33	0.003
675.52	0.003
675.71	0.003
675.89	0.003
676.08	0.003
676.27	0.003
676.46	0.003
676.65	0.003
676.84	0.003
677.02	0.003
677.21	0.003
677.40	0.003
677.59	0.003
677.78	0.003
677.96	0.003
678.15	0.003
678.34	0.003
678.53	0.003
678.72	0.003
678.90	0.003
679.09	0.003
679.28	0.003
679.47	0.003
679.66	0.003
679.84	0.003
680.03	0.003
680.22	0.002
680.41	0.002
680.60	0.002
680.78	0.002
680.97	0.002
681.16	0.002
681.35	0.002
681.53	0.002
681.72	0.002
681.91	0.002
682.10	0.002
682.29	0.002
682.47	0.002
682.66	0.002
682.85	0.002
683.04	0.002
683.22	0.002
683.41	0.002
683.60	0.002
683.79	0.002
683.97	0.002
684.16	0.002
684.35	0.002
684.54	0.002
684.72	0.002
684.91	0.002
685.10	0.002
685.29	0.002
685.47	0.002
685.66	0.002
685.85	0.002
686.04	0.002
686.22	0.002
686.41	0.002
686.60	0.002
686.79	0.002
686.97	0.002
687.16	0.002
687.35	0.002
687.54	0.002
687.72	0.002
687.91	0.002
688.10	0.002
688.29	0.002
688.47	0.002
688.66	0.002
688.85	0.003
689.03	0.003
689.22	0.003
689.41	0.003
689.60	0.003
689.78	0.003
689.97	0.003
690.16	0.003
690.34	0.003
690.53	0.003
690.72	0.003
690.91	0.003
691.09	0.003
691.28	0.003
691.47	0.003
691.65	0.003
691.84	0.002
692.03	0.002
692.21	0.002
692.40	0.002
692.59	0.002
692.77	0.002
692.96	0.002
693.15	0.002
693.34	0.002
693.52	0.002
693.71	0.002
693.90	0.002
694.08	0.002
694.27	0.002
694.46	0.002
694.64	0.002
694.83	0.002
695.02	0.002
695.20	0.002
695.39	0.002
695.58	0.002
695.76	0.002
695.95	0.002
696.14	0.002
696.32	0.002
696.51	0.002
696.70	0.002
696.88	0.002
697.07	0.002
697.26	0.002
697.44	0.002
697.63	0.002
697.81	0.003
698.00	0.003
698.19	0.003
698.37	0.003
698.56	0.003
698.75	0.003
698.93	0.003
699.12	0.003
699.31	0.003
699.49	0.003
699.68	0.003
699.87	0.003
700.05	0.002
700.24	0.003
700.42	0.003
700.61	0.003
700.80	0.003
700.98	0.003
701.17	0.003
701.36	0.003
701.54	0.003
701.73	0.003
701.91	0.003
702.10	0.003
702.29	0.003
702.47	0.003
702.66	0.002
702.84	0.002
703.03	0.002
703.22	0.002
703.40	0.002
703.59	0.002
703.77	0.002
703.96	0.002
704.15	0.002
704.33	0.002
704.52	0.002
704.70	0.003
704.89	0.003
705.08	0.003
705.26	0.003
705.45	0.003
705.63	0.003
705.82	0.003
706.00	0.003
706.19	0.003
706.38	0.003
706.56	0.003
706.75	0.003
706.93	0.002
707.12	0.002
707.30	0.002
707.49	0.002
707.68	0.002
707.86	0.002
708.05	0.002
708.23	0.002
708.42	0.002
708.60	0.002
708.79	0.002
708.98	0.002
709.16	0.002
709.35	0.002
709.53	0.002
709.72	0.002
709.90	0.002
710.09	0.002
710.27	0.003
710.46	0.003
710.64	0.003
710.83	0.003
711.02	0.003
711.20	0.003
711.39	0.003
711.57	0.003
711.76	0.003
711.94	0.003
712.13	0.003
712.31	0.003
712.50	0.002
712.68	0.002
712.87	0.002
713.05	0.002
713.24	0.002
713.42	0.002
713.61	0.002
713.79	0.002
713.98	0.002
714.16	0.002
714.35	0.002
714.54	0.003
714.72	0.003
714.91	0.002
715.09	0.003
715.28	0.003
715.46	0.003
715.65	0.003
715.83	0.003
716.02	0.002
716.20	0.003
716.39	0.002
716.57	0.002
716.76	0.002
716.94	0.003
717.12	0.002
717.31	0.002
717.49	0.002
717.68	0.003
717.86	0.002
718.05	0.003
718.23	0.003
718.42	0.003
718.60	0.003
718.79	0.003
718.97	0.003
719.16	0.003
719.34	0.003
719.53	0.002
719.71	0.002
719.90	0.002
720.08	0.002
720.27	0.002
720.45	0.002
720.63	0.002
720.82	0.002
721.00	0.002
721.19	0.002
721.37	0.002
721.56	0.002
721.74	0.003
721.93	0.003
722.11	0.003
722.30	0.003
722.48	0.003
722.66	0.003
722.85	0.003
723.03	0.003
723.22	0.003
723.40	0.003
723.59	0.003
723.77	0.003
723.95	0.003
724.14	0.003
724.32	0.003
724.51	0.003
724.69	0.003
724.88	0.003
725.06	0.002
725.24	0.003
725.43	0.003
725.61	0.002
725.80	0.002
725.98	0.002
726.16	0.002
726.35	0.002
726.53	0.002
726.72	0.002
726.90	0.002
727.09	0.002
727.27	0.002
727.45	0.002
727.64	0.002
727.82	0.002
728.01	0.003
728.19	0.003
728.37	0.002
728.56	0.002
728.74	0.002
728.92	0.002
729.11	0.002
729.29	0.002
729.48	0.002
729.66	0.002
729.84	0.002
730.03	0.002
730.21	0.002
730.40	0.002
730.58	0.002
730.76	0.002
730.95	0.002
731.13	0.002
731.31	0.002
731.50	0.002
731.68	0.002
731.86	0.002
732.05	0.002
732.23	0.003
732.42	0.003
732.60	0.003
732.78	0.003
732.97	0.003
733.15	0.003
733.33	0.003
733.52	0.003
733.70	0.003
733.88	0.002
734.07	0.003
734.25	0.002
734.43	0.003
734.62	0.002
734.80	0.002
734.98	0.001
735.17	0.001
735.35	0.001
735.53	0.001
735.72	0.001
735.90	0.001
736.08	0.001
736.27	0.001
736.45	0.001
736.63	0.001
736.82	0.001
737.00	0.001
737.18	0.002
737.37	0.002
737.55	0.002
737.73	0.001
737.92	0.001
738.10	0.001
738.28	0.001
738.46	0.002
738.65	0.001
738.83	0.001
739.01	0.001
739.20	0.001
739.38	0.001
739.56	0.002
739.75	0.001
739.93	0.002
740.11	0.002
740.29	0.002
740.48	0.002
740.66	0.003
740.84	0.003
741.03	0.003
741.21	0.003
741.39	0.003
741.57	0.003
741.76	0.004
741.94	0.003
742.12	0.003
742.31	0.003
742.49	0.003
742.67	0.003
742.85	0.004
743.04	0.004
743.22	0.004
743.40	0.003
743.58	0.004
743.77	0.003
743.95	0.004
744.13	0.004
744.31	0.004
744.50	0.003
744.68	0.003
744.86	0.003
745.04	0.003
745.23	0.003
745.41	0.003
745.59	0.002
745.77	0.002
745.96	0.003
746.14	0.003
746.32	0.003
746.50	0.003
746.69	0.003
746.87	0.003
747.05	0.003
747.23	0.003
747.42	0.003
747.60	0.004
747.78	0.004
747.96	0.004
748.14	0.004
748.33	0.004
748.51	0.004
748.69	0.004
748.87	0.004
749.06	0.005
749.24	0.005
749.42	0.005
749.60	0.006
749.78	0.005
749.97	0.004
750.15	0.004
750.33	0.004
750.51	0.004
750.69	0.003
750.88	0.003
751.06	0.003
751.24	0.003
751.42	0.003
751.60	0.002
751.79	0.003
751.97	0.003
752.15	0.003
752.33	0.003
752.51	0.003
752.69	0.003
752.88	0.004
753.06	0.004
753.24	0.003
753.42	0.004
753.60	0.004
753.78	0.003
753.97	0.004
754.15	0.004
754.33	0.004
754.51	0.004
754.69	0.003
754.87	0.003
755.06	0.003
755.24	0.003
755.42	0.003
755.60	0.003
755.78	0.003
755.96	0.003
756.15	0.003
756.33	0.003
756.51	0.003
756.69	0.004
756.87	0.004
757.05	0.004
757.23	0.004
757.42	0.003
757.60	0.003
757.78	0.002
757.96	0.003
758.14	0.003
758.32	0.003
758.50	0.002
758.69	0.002
758.87	0.003
759.05	0.003
759.23	0.002
759.41	0.003
759.59	0.003
759.77	0.003
759.95	0.003
760.13	0.003
760.32	0.003
760.50	0.003
760.68	0.003
760.86	0.003
761.04	0.003
761.22	0.003
761.40	0.003
761.58	0.002
761.76	0.002
761.95	0.001
762.13	0.002
762.31	0.002
762.49	0.002
762.67	0.002
762.85	0.002
763.03	0.002
763.21	0.002
763.39	0.002
763.57	0.003
763.75	0.003
763.94	0.003
764.12	0.002
764.30	0.003
764.48	0.002
764.66	0.002
764.84	0.002
765.02	0.002
765.20	0.002
765.38	0.001
765.56	0.001
765.74	0.001
765.92	0.001
766.10	0.001
766.28	0.001
766.46	0.001
766.65	0.001
766.83	0.001
767.01	0.001
767.19	0.001
767.37	0.001
767.55	0.001
767.73	0.002
767.91	0.001
768.09	0.002
768.27	0.002
768.45	0.002
768.63	0.002
768.81	0.002
768.99	0.002
769.17	0.001
769.35	0.002
769.53	0.001
769.71	0.001
769.89	0.002
770.07	0.002
770.25	0.001
770.43	0.001
770.61	0.001
770.79	0.002
770.97	0.002
771.15	0.002
771.33	0.002
771.51	0.002
771.69	0.002
771.87	0.001
772.05	0.002
772.24	0.002
772.42	0.001
772.60	0.001
772.78	0.002
772.96	0.002
773.14	0.002
773.32	0.001
773.49	0.002
773.67	0.002
773.85	0.002
774.03	0.002
774.21	0.001
774.39	0.001
774.57	0.001
774.75	0.001
774.93	0.001
775.11	0.001
775.29	0.001
775.47	0.001
775.65	0.000
775.83	0.001
776.01	0.001
776.19	0.001
776.37	0.002
776.55	0.002
776.73	0.001
776.91	0.002
777.09	0.001
777.27	0.001
777.45	0.002
777.63	0.002
777.81	0.002
777.99	0.002
778.17	0.002
778.35	0.003
778.53	0.003
778.71	0.003
778.89	0.003
779.07	0.003
779.24	0.002
779.42	0.002
779.60	0.002
779.78	0.002
779.96	0.002
780.14	0.001
780.32	0.001
780.50	0.001
780.68	0.001
780.86	0.000
781.04	0.001
781.22	0.001
781.40	0.002
781.58	0.001
781.75	0.002
781.93	0.002
782.11	0.002
782.29	0.003
782.47	0.003
782.65	0.004
782.83	0.003
783.01	0.003
783.19	0.003
783.37	0.003
783.55	0.003
783.72	0.003
783.90	0.003
784.08	0.003
784.26	0.002
784.44	0.002
784.62	0.001
784.80	0.001
784.98	0.001
785.16	0.001
785.33	0.002
785.51	0.002
785.69	0.002
785.87	0.002
786.05	0.002
786.23	0.002
786.41	0.002
786.59	0.002
786.77	0.002
786.94	0.002
787.12	0.002
787.30	0.001
787.48	0.001
787.66	0.001
787.84	0.001
788.02	0.001
788.19	0.001
788.37	0.001
788.55	0.002
788.73	0.002
788.91	0.002
789.09	0.002
789.27	0.002
789.44	0.001
789.62	0.002
789.80	0.002
789.98	0.002
790.16	0.002
790.34	0.001
790.51	0.002
790.69	0.002
790.87	0.002
791.05	0.001
791.23	0.002
791.41	0.002
791.58	0.002
791.76	0.002
791.94	0.002
792.12	0.002
792.30	0.003
792.48	0.002
792.65	0.002
792.83	0.002
793.01	0.003
793.19	0.002
793.37	0.002
793.54	0.002
793.72	0.002
793.90	0.002
794.08	0.002
794.26	0.002
794.43	0.002
794.61	0.002
794.79	0.002
794.97	0.002
795.15	0.002
795.32	0.002
795.50	0.002
795.68	0.002
795.86	0.002
796.04	0.002
796.21	0.003
796.39	0.002
796.57	0.002
796.75	0.002
796.92	0.002
797.10	0.002
797.28	0.002
797.46	0.002
797.64	0.001
797.81	0.001
797.99	0.001
798.17	0.001
798.35	0.001
798.52	0.001
798.70	0.001
798.88	0.001
799.06	0.001
799.23	0.001
799.41	0.002
799.59	0.002
799.77	0.003
799.94	0.003
800.12	0.003
800.30	0.003
800.48	0.003
800.65	0.003
800.83	0.002
801.01	0.002
801.19	0.002
801.36	0.002
801.54	0.002
801.72	0.001
801.90	0.001
802.07	0.001
802.25	0.001
802.43	0.001
802.60	0.001
802.78	0.002
802.96	0.002
803.14	0.002
803.31	0.001
803.49	0.001
803.67	0.001
803.84	0.001
804.02	0.001
804.20	0.001
804.38	0.001
804.55	0.001
804.73	0.000
804.91	0.000
805.08	0.001
805.26	0.001
805.44	0.001
805.61	0.002
805.79	0.002
805.97	0.002
806.15	0.002
806.32	0.002
806.50	0.002
806.68	0.002
806.85	0.001
807.03	0.002
807.21	0.001
807.38	0.001
807.56	0.001
807.74	0.001
807.91	0.001
808.09	0.001
808.27	0.001
808.44	0.000
808.62	0.001
808.80	0.001
808.97	0.001
809.15	0.001
809.33	0.001
809.50	0.001
809.68	0.001
809.86	0.001
810.03	0.002
810.21	0.002
810.39	0.002
810.56	0.002
810.74	0.003
810.91	0.002
811.09	0.002
811.27	0.002
811.44	0.002
811.62	0.002
811.80	0.002
811.97	0.002
812.15	0.002
812.33	0.002
812.50	0.002
812.68	0.002
812.85	0.002
813.03	0.002
813.21	0.002
813.38	0.003
813.56	0.002
813.74	0.003
813.91	0.002
814.09	0.002
814.26	0.001
814.44	0.001
814.62	0.002
814.79	0.001
814.97	0.001
815.14	0.001
815.32	0.001
815.50	0.001
815.67	0.001
815.85	0.002
816.02	0.002
816.20	0.002
816.38	0.002
816.55	0.002
816.73	0.002
816.90	0.002
817.08	0.002
817.26	0.002
817.43	0.002
817.61	0.002
817.78	0.001
817.96	0.002
818.13	0.002
818.31	0.002
818.49	0.001
818.66	0.001
818.84	0.001
819.01	0.001
819.19	0.001
819.36	0.002
819.54	0.002
819.71	0.002
819.89	0.001
820.07	0.002
820.24	0.001
820.42	0.001
820.59	0.002
820.77	0.002
820.94	0.002
821.12	0.002
821.29	0.001
821.47	0.001
821.64	0.002
821.82	0.002
822.00	0.002
822.17	0.002
822.35	0.002
822.52	0.002
822.70	0.002
822.87	0.002
823.05	0.001
823.22	0.002
823.40	0.001
823.57	0.001
823.75	0.001
823.92	0.001
824.10	0.000
824.27	0.000
824.45	0.001
824.62	0.001
824.80	0.001
824.97	0.001
825.15	0.001
825.32	0.002
825.50	0.002
825.67	0.001
825.85	0.001
826.02	0.002
826.20	0.003
826.37	0.003
826.55	0.003
826.72	0.003
826.90	0.003
827.07	0.003
827.25	0.003
827.42	0.003
827.60	0.004
827.77	0.004
827.95	0.004
828.12	0.003
828.30	0.003
828.47	0.002
828.65	0.002
828.82	0.002
829.00	0.002
829.17	0.002
829.34	0.002
829.52	0.001
829.69	0.002
829.87	0.001
830.04	0.002
830.22	0.002
830.39	0.003
830.57	0.003
830.74	0.003
830.92	0.003
831.09	0.002
831.26	0.002
831.44	0.002
831.61	0.003
831.79	0.004
831.96	0.004
832.14	0.003
832.31	0.002
832.49	0.002
832.66	0.002
832.83	0.004
833.01	0.004
833.18	0.005
833.36	0.004
833.53	0.004
833.70	0.003
833.88	0.003
834.05	0.003
834.23	0.003
834.40	0.004
834.58	0.003
834.75	0.002
834.92	0.003
835.10	0.001
835.27	0.000
835.45	0.000
835.62	-0.000
835.79	0.000
835.97	-0.000
836.14	0.000
836.32	0.001
836.49	0.001
836.66	-0.000
836.84	0.000
837.01	0.001
837.18	0.002
837.36	0.003
837.53	0.004
837.71	0.003
837.88	0.004
838.05	0.003
838.23	0.002
838.40	0.004
838.58	0.004
838.75	0.003
838.92	0.003
839.10	0.003
839.27	0.004
839.44	0.004
839.62	0.005
839.79	0.004
839.96	0.008
840.14	0.009
840.31	0.008
840.48	0.010
840.66	0.012
840.83	0.011
841.01	0.010
841.18	0.009
841.35	0.007
841.53	0.005
841.70	0.006
841.87	0.002
842.05	0.001
842.22	0.001
842.39	0.000
842.57	-0.001
842.74	0.000
842.91	0.002
843.09	0.002
843.26	0.004
843.43	0.005
843.60	0.005
843.78	0.009
843.95	0.008
844.12	0.006
844.30	0.005
844.47	0.005
844.64	0.006
844.82	0.005
844.99	0.005
845.16	0.005
845.34	0.003
845.51	0.004
845.68	0.002
845.85	0.002
846.03	0.003
846.20	0.004
846.37	0.006
846.55	0.007
846.72	0.007
846.89	0.006
847.06	0.006
847.24	0.008
847.41	0.006
847.58	0.005
847.76	0.007
847.93	0.007
848.10	0.005
848.27	0.002
848.45	0.002
848.62	0.001
848.79	0.000
848.97	0.000
849.14	-0.000
849.31	0.003
849.48	0.004
849.66	0.005
849.83	0.005
850.00	0.009
850.17	0.008
850.35	0.006
850.52	0.004
850.69	0.005
850.86	0.005
851.04	0.006
851.21	0.005
851.38	0.003
851.55	0.001
851.72	0.001
851.90	0.001
852.07	0.002
852.24	0.003
852.41	0.004
852.59	0.005
852.76	0.004
852.93	0.004
853.10	0.003
853.28	0.004
853.45	0.004
853.62	0.002
853.79	0.003
853.96	0.002
854.14	0.002
854.31	0.003
854.48	0.003
854.65	0.003
854.82	0.006
855.00	0.004
855.17	0.003
855.34	0.003
855.51	0.007
855.68	0.003
855.86	0.003
856.03	0.002
856.20	-0.000
856.37	-0.003
856.54	-0.001
856.72	-0.005
856.89	-0.002
857.06	-0.002
857.23	-0.002
857.40	-0.004
857.57	-0.004
857.75	-0.002
857.92	0.001
858.09	0.003
858.26	0.001
858.43	-0.000
858.60	-0.002
858.78	-0.003
858.95	-0.004
859.12	-0.002
859.29	-0.003
859.46	-0.003
859.63	-0.002
859.81	-0.002
859.98	-0.003
860.15	0.000
860.32	0.001
860.49	0.002
860.66	0.000
860.83	0.001
861.01	0.000
861.18	-0.000
861.35	0.001
861.52	-0.003
861.69	-0.006
861.86	-0.005
862.03	-0.002
862.21	0.002
862.38	0.006
862.55	0.008
862.72	0.010
862.89	0.011
863.06	0.012
863.23	0.016
863.40	0.015
863.58	0.016
863.75	0.016
863.92	0.013
864.09	0.011
864.26	0.010
864.43	0.008
864.60	0.009
864.77	0.007
864.94	0.010
865.11	0.006
865.29	0.008
865.46	0.010
865.63	0.010
865.80	0.010
865.97	0.010
866.14	0.014
866.31	0.013
866.48	0.008
866.65	0.011
866.82	0.010
866.99	0.008
867.16	0.006
867.34	0.001
867.51	0.003
867.68	0.002
867.85	-0.000
868.02	-0.007
868.19	-0.008
868.36	-0.006
868.53	-0.014
868.70	-0.012
868.87	-0.015
869.04	-0.013
869.21	-0.012
869.38	-0.017
869.55	-0.017
869.72	-0.019
869.89	-0.013
870.06	-0.014
870.24	-0.012
870.41	-0.009
870.58	-0.012
870.75	-0.009
870.92	-0.005
871.09	-0.003
871.26	0.003
871.43	0.005
871.60	0.012
871.77	0.008
871.94	0.013
872.11	0.012
872.28	0.012
872.45	0.013
872.62	0.013
872.79	0.009
872.96	0.006
873.13	0.001
873.30	-0.001
873.47	-0.007
873.64	-0.004
873.81	-0.006
873.98	-0.003
874.15	0.003
874.32	-0.004
874.49	0.002
874.66	0.003
874.83	0.008
875.00	0.006
875.17	0.004
875.34	0.003
875.51	0.003
875.68	0.004
875.85	0.001
876.02	-0.000
876.19	0.002
876.36	0.001
876.53	0.002
876.70	0.002
876.87	0.009
877.04	0.007
877.21	0.010
877.38	0.008
877.55	0.007
877.72	0.007
877.89	0.001
878.06	0.002
878.23	0.000
878.39	0.002
878.56	0.007
878.73	0.005
878.90	0.008
879.07	0.013
879.24	0.010
879.41	0.009
879.58	0.016
879.75	0.018
879.92	0.017
880.09	0.020
880.26	0.018
880.43	0.010
880.60	0.011
880.77	0.023
880.94	0.019
881.11	0.022
881.27	0.028
881.44	0.018
881.61	0.017
881.78	0.020
881.95	0.013
882.12	0.006
882.29	0.008
882.46	0.001
882.63	-0.007
882.80	-0.006
882.97	-0.004
883.14	-0.011
883.30	-0.008
883.47	-0.006
883.64	-0.010
883.81	-0.001
883.98	0.002
884.15	-0.005
884.32	-0.002
884.49	-0.001
884.66	-0.005
884.82	-0.007
884.99	-0.005
885.16	-0.003
885.33	-0.002
885.50	0.003
885.67	0.004
885.84	0.011
886.01	0.013
886.17	0.014
886.34	0.014
886.51	0.019
886.68	0.020
886.85	0.026
887.02	0.029
887.19	0.024
887.36	0.018
887.52	0.018
887.69	0.017
887.86	0.020
888.03	0.026
888.20	0.024
888.37	0.009
888.54	0.007
888.70	0.000
888.87	-0.005
889.04	-0.009
889.21	-0.010
889.38	-0.005
889.55	-0.003
889.71	0.024
889.88	-0.080
890.05	-0.086
890.22	0.114
890.39	0.038
>>>>>End Processed Spectral Data<<<<<
