SpectraSuite Data File
++++++++++++++++++++++++++++++++++++
Date: Mon Jun 15 09:22:24 PDT 2015
User: introlabs
Dark Spectrum Present: Yes
Reference Spectrum Present: Yes
Number of Sampled Component Spectra: 1
Spectrometers: USB4H08886
Integration Time (usec): 44366 (USB4H08886)
Spectra Averaged: 20 (USB4H08886)
Boxcar Smoothing: 5 (USB4H08886)
Correct for Electrical Dark: Yes (USB4H08886)
Strobe/Lamp Enabled: No (USB4H08886)
Correct for Detector Non-linearity: Yes (USB4H08886)
Correct for Stray Light: Yes (USB4H08886)
Number of Pixels in Processed Spectrum: 3648
>>>>>Begin Processed Spectral Data<<<<<
178.14	-0.000
178.36	-0.000
178.57	-0.000
178.79	0.101
179.01	-1.071
179.22	-0.034
179.44	-0.507
179.65	-0.000
179.87	-0.000
180.08	-0.000
180.30	-0.000
180.52	-0.000
180.73	0.383
180.95	0.072
181.16	0.037
181.38	-0.020
181.59	-0.008
181.81	-0.025
182.03	0.010
182.24	0.011
182.46	0.016
182.67	0.014
182.89	0.014
183.10	0.019
183.32	0.016
183.54	0.010
183.75	0.027
183.97	0.025
184.18	0.025
184.40	0.009
184.61	0.007
184.83	0.006
185.04	-0.000
185.26	0.004
185.48	0.002
185.69	-0.000
185.91	-0.002
186.12	-0.006
186.34	0.000
186.55	-0.006
186.77	-0.002
186.98	-0.003
187.20	-0.013
187.42	-0.008
187.63	-0.009
187.85	-0.005
188.06	-0.002
188.28	0.002
188.49	0.008
188.71	0.002
188.92	0.005
189.14	-0.011
189.36	-0.005
189.57	0.005
189.79	-0.001
190.00	-0.004
190.22	-0.001
190.43	0.005
190.65	-0.000
190.86	0.004
191.08	0.011
191.29	0.009
191.51	0.020
191.72	0.013
191.94	0.011
192.16	0.017
192.37	0.016
192.59	0.016
192.80	0.009
193.02	0.015
193.23	0.012
193.45	-0.001
193.66	0.006
193.88	0.008
194.09	0.003
194.31	0.000
194.52	0.001
194.74	0.003
194.95	-0.005
195.17	0.000
195.38	-0.005
195.60	-0.012
195.81	-0.006
196.03	-0.013
196.25	-0.008
196.46	-0.005
196.68	-0.010
196.89	-0.011
197.11	-0.012
197.32	-0.014
197.54	-0.022
197.75	-0.014
197.97	-0.013
198.18	-0.015
198.40	-0.014
198.61	-0.022
198.83	-0.022
199.04	-0.013
199.26	-0.021
199.47	-0.023
199.69	-0.018
199.90	-0.001
200.12	-0.002
200.33	-0.005
200.55	-0.002
200.76	-0.004
200.98	-0.001
201.19	-0.002
201.41	-0.011
201.62	0.004
201.84	0.007
202.05	0.011
202.27	0.004
202.48	0.003
202.70	0.004
202.91	0.002
203.13	-0.004
203.34	-0.014
203.56	-0.014
203.77	-0.007
203.99	-0.021
204.20	-0.029
204.42	-0.031
204.63	-0.030
204.85	-0.031
205.06	-0.034
205.28	-0.027
205.49	-0.016
205.71	0.000
205.92	0.001
206.14	-0.001
206.35	0.006
206.56	0.017
206.78	0.010
206.99	0.015
207.21	0.021
207.42	0.023
207.64	0.020
207.85	0.018
208.07	0.013
208.28	0.015
208.50	0.020
208.71	0.021
208.93	0.015
209.14	0.021
209.36	0.011
209.57	0.004
209.79	0.008
210.00	0.011
210.22	0.015
210.43	0.007
210.64	0.008
210.86	-0.002
211.07	-0.010
211.29	-0.011
211.50	-0.010
211.72	-0.012
211.93	-0.013
212.15	-0.012
212.36	-0.020
212.58	-0.025
212.79	-0.021
213.01	-0.025
213.22	-0.020
213.43	-0.020
213.65	-0.019
213.86	-0.021
214.08	-0.014
214.29	-0.014
214.51	-0.018
214.72	-0.017
214.94	-0.016
215.15	-0.012
215.36	-0.014
215.58	-0.015
215.79	-0.015
216.01	-0.007
216.22	-0.007
216.44	-0.014
216.65	-0.017
216.87	-0.012
217.08	-0.010
217.29	-0.004
217.51	-0.007
217.72	-0.005
217.94	-0.003
218.15	-0.003
218.37	-0.012
218.58	-0.016
218.80	-0.009
219.01	-0.008
219.22	-0.014
219.44	-0.009
219.65	-0.013
219.87	-0.011
220.08	-0.013
220.30	-0.019
220.51	-0.018
220.72	-0.016
220.94	-0.019
221.15	-0.027
221.37	-0.031
221.58	-0.029
221.79	-0.030
222.01	-0.038
222.22	-0.045
222.44	-0.044
222.65	-0.041
222.87	-0.040
223.08	-0.043
223.29	-0.039
223.51	-0.036
223.72	-0.034
223.94	-0.041
224.15	-0.045
224.36	-0.039
224.58	-0.037
224.79	-0.036
225.01	-0.042
225.22	-0.041
225.44	-0.039
225.65	-0.040
225.86	-0.040
226.08	-0.037
226.29	-0.034
226.51	-0.033
226.72	-0.031
226.93	-0.030
227.15	-0.038
227.36	-0.036
227.58	-0.040
227.79	-0.039
228.00	-0.037
228.22	-0.041
228.43	-0.044
228.65	-0.046
228.86	-0.047
229.07	-0.052
229.29	-0.055
229.50	-0.051
229.72	-0.052
229.93	-0.055
230.14	-0.057
230.36	-0.062
230.57	-0.063
230.78	-0.065
231.00	-0.068
231.21	-0.072
231.43	-0.069
231.64	-0.070
231.85	-0.068
232.07	-0.068
232.28	-0.067
232.50	-0.069
232.71	-0.072
232.92	-0.072
233.14	-0.074
233.35	-0.071
233.56	-0.072
233.78	-0.075
233.99	-0.077
234.21	-0.078
234.42	-0.079
234.63	-0.081
234.85	-0.080
235.06	-0.081
235.27	-0.081
235.49	-0.079
235.70	-0.081
235.91	-0.081
236.13	-0.080
236.34	-0.082
236.56	-0.083
236.77	-0.083
236.98	-0.082
237.20	-0.083
237.41	-0.082
237.62	-0.081
237.84	-0.082
238.05	-0.081
238.26	-0.082
238.48	-0.082
238.69	-0.079
238.91	-0.079
239.12	-0.079
239.33	-0.079
239.55	-0.077
239.76	-0.077
239.97	-0.076
240.19	-0.075
240.40	-0.074
240.61	-0.074
240.83	-0.074
241.04	-0.074
241.25	-0.073
241.47	-0.072
241.68	-0.071
241.89	-0.070
242.11	-0.069
242.32	-0.069
242.53	-0.068
242.75	-0.067
242.96	-0.066
243.17	-0.064
243.39	-0.063
243.60	-0.063
243.81	-0.063
244.03	-0.062
244.24	-0.060
244.45	-0.059
244.67	-0.058
244.88	-0.057
245.09	-0.057
245.31	-0.056
245.52	-0.056
245.73	-0.055
245.95	-0.054
246.16	-0.054
246.37	-0.053
246.59	-0.053
246.80	-0.052
247.01	-0.052
247.23	-0.052
247.44	-0.052
247.65	-0.051
247.87	-0.051
248.08	-0.051
248.29	-0.050
248.51	-0.050
248.72	-0.049
248.93	-0.049
249.15	-0.049
249.36	-0.049
249.57	-0.049
249.78	-0.048
250.00	-0.048
250.21	-0.048
250.42	-0.047
250.64	-0.047
250.85	-0.046
251.06	-0.046
251.28	-0.046
251.49	-0.046
251.70	-0.045
251.92	-0.045
252.13	-0.044
252.34	-0.043
252.55	-0.043
252.77	-0.043
252.98	-0.043
253.19	-0.043
253.41	-0.043
253.62	-0.042
253.83	-0.042
254.05	-0.042
254.26	-0.042
254.47	-0.042
254.68	-0.042
254.90	-0.042
255.11	-0.041
255.32	-0.041
255.54	-0.040
255.75	-0.040
255.96	-0.040
256.17	-0.040
256.39	-0.040
256.60	-0.040
256.81	-0.039
257.03	-0.039
257.24	-0.039
257.45	-0.039
257.66	-0.039
257.88	-0.039
258.09	-0.039
258.30	-0.039
258.51	-0.040
258.73	-0.040
258.94	-0.040
259.15	-0.039
259.37	-0.040
259.58	-0.040
259.79	-0.040
260.00	-0.039
260.22	-0.039
260.43	-0.039
260.64	-0.039
260.85	-0.039
261.07	-0.039
261.28	-0.039
261.49	-0.039
261.71	-0.039
261.92	-0.039
262.13	-0.039
262.34	-0.039
262.56	-0.039
262.77	-0.039
262.98	-0.040
263.19	-0.040
263.41	-0.040
263.62	-0.040
263.83	-0.041
264.04	-0.041
264.26	-0.041
264.47	-0.041
264.68	-0.042
264.89	-0.041
265.11	-0.042
265.32	-0.042
265.53	-0.041
265.74	-0.041
265.96	-0.042
266.17	-0.042
266.38	-0.042
266.59	-0.042
266.81	-0.042
267.02	-0.042
267.23	-0.043
267.44	-0.044
267.65	-0.044
267.87	-0.045
268.08	-0.045
268.29	-0.045
268.50	-0.045
268.72	-0.045
268.93	-0.045
269.14	-0.045
269.35	-0.045
269.57	-0.045
269.78	-0.045
269.99	-0.045
270.20	-0.045
270.41	-0.045
270.63	-0.045
270.84	-0.046
271.05	-0.047
271.26	-0.047
271.48	-0.047
271.69	-0.047
271.90	-0.048
272.11	-0.048
272.32	-0.048
272.54	-0.048
272.75	-0.048
272.96	-0.049
273.17	-0.049
273.39	-0.049
273.60	-0.049
273.81	-0.049
274.02	-0.049
274.23	-0.049
274.45	-0.049
274.66	-0.049
274.87	-0.049
275.08	-0.049
275.29	-0.049
275.51	-0.049
275.72	-0.049
275.93	-0.049
276.14	-0.049
276.35	-0.049
276.57	-0.049
276.78	-0.049
276.99	-0.049
277.20	-0.048
277.41	-0.049
277.63	-0.049
277.84	-0.048
278.05	-0.048
278.26	-0.048
278.47	-0.048
278.69	-0.048
278.90	-0.047
279.11	-0.047
279.32	-0.047
279.53	-0.046
279.74	-0.046
279.96	-0.046
280.17	-0.045
280.38	-0.045
280.59	-0.045
280.80	-0.045
281.02	-0.045
281.23	-0.045
281.44	-0.044
281.65	-0.044
281.86	-0.044
282.07	-0.044
282.29	-0.044
282.50	-0.044
282.71	-0.044
282.92	-0.044
283.13	-0.043
283.35	-0.043
283.56	-0.043
283.77	-0.043
283.98	-0.042
284.19	-0.042
284.40	-0.041
284.62	-0.041
284.83	-0.041
285.04	-0.040
285.25	-0.040
285.46	-0.039
285.67	-0.039
285.88	-0.038
286.10	-0.038
286.31	-0.037
286.52	-0.036
286.73	-0.036
286.94	-0.035
287.15	-0.034
287.37	-0.033
287.58	-0.033
287.79	-0.032
288.00	-0.031
288.21	-0.030
288.42	-0.030
288.63	-0.029
288.85	-0.028
289.06	-0.028
289.27	-0.027
289.48	-0.027
289.69	-0.026
289.90	-0.026
290.11	-0.025
290.33	-0.025
290.54	-0.024
290.75	-0.024
290.96	-0.023
291.17	-0.023
291.38	-0.023
291.59	-0.022
291.81	-0.022
292.02	-0.021
292.23	-0.021
292.44	-0.021
292.65	-0.020
292.86	-0.020
293.07	-0.020
293.28	-0.019
293.50	-0.019
293.71	-0.019
293.92	-0.019
294.13	-0.018
294.34	-0.018
294.55	-0.018
294.76	-0.017
294.97	-0.017
295.19	-0.017
295.40	-0.017
295.61	-0.017
295.82	-0.017
296.03	-0.017
296.24	-0.017
296.45	-0.017
296.66	-0.017
296.87	-0.017
297.09	-0.017
297.30	-0.017
297.51	-0.016
297.72	-0.016
297.93	-0.016
298.14	-0.016
298.35	-0.016
298.56	-0.016
298.77	-0.016
298.99	-0.015
299.20	-0.015
299.41	-0.015
299.62	-0.015
299.83	-0.015
300.04	-0.015
300.25	-0.015
300.46	-0.014
300.67	-0.014
300.88	-0.014
301.10	-0.014
301.31	-0.014
301.52	-0.014
301.73	-0.014
301.94	-0.014
302.15	-0.014
302.36	-0.014
302.57	-0.014
302.78	-0.014
302.99	-0.014
303.20	-0.014
303.41	-0.014
303.63	-0.014
303.84	-0.014
304.05	-0.014
304.26	-0.014
304.47	-0.014
304.68	-0.014
304.89	-0.014
305.10	-0.013
305.31	-0.013
305.52	-0.013
305.73	-0.013
305.94	-0.013
306.15	-0.013
306.37	-0.013
306.58	-0.013
306.79	-0.012
307.00	-0.012
307.21	-0.012
307.42	-0.012
307.63	-0.012
307.84	-0.012
308.05	-0.012
308.26	-0.012
308.47	-0.012
308.68	-0.012
308.89	-0.012
309.10	-0.012
309.31	-0.012
309.52	-0.012
309.73	-0.012
309.95	-0.012
310.16	-0.012
310.37	-0.012
310.58	-0.012
310.79	-0.012
311.00	-0.012
311.21	-0.012
311.42	-0.012
311.63	-0.012
311.84	-0.012
312.05	-0.012
312.26	-0.012
312.47	-0.012
312.68	-0.011
312.89	-0.011
313.10	-0.011
313.31	-0.011
313.52	-0.011
313.73	-0.011
313.94	-0.011
314.15	-0.011
314.36	-0.011
314.57	-0.011
314.78	-0.010
314.99	-0.011
315.21	-0.010
315.42	-0.010
315.63	-0.010
315.84	-0.010
316.05	-0.010
316.26	-0.010
316.47	-0.010
316.68	-0.010
316.89	-0.010
317.10	-0.010
317.31	-0.010
317.52	-0.010
317.73	-0.010
317.94	-0.010
318.15	-0.009
318.36	-0.009
318.57	-0.009
318.78	-0.009
318.99	-0.009
319.20	-0.009
319.41	-0.009
319.62	-0.009
319.83	-0.009
320.04	-0.009
320.25	-0.009
320.46	-0.009
320.67	-0.009
320.88	-0.009
321.09	-0.009
321.30	-0.009
321.51	-0.010
321.72	-0.009
321.93	-0.009
322.14	-0.009
322.35	-0.009
322.56	-0.009
322.77	-0.009
322.98	-0.009
323.19	-0.009
323.40	-0.009
323.61	-0.008
323.82	-0.008
324.03	-0.008
324.24	-0.008
324.45	-0.008
324.66	-0.008
324.87	-0.008
325.08	-0.008
325.29	-0.008
325.50	-0.008
325.71	-0.008
325.92	-0.008
326.13	-0.008
326.34	-0.008
326.55	-0.008
326.76	-0.008
326.97	-0.008
327.18	-0.008
327.39	-0.008
327.60	-0.008
327.80	-0.008
328.01	-0.008
328.22	-0.008
328.43	-0.008
328.64	-0.008
328.85	-0.008
329.06	-0.008
329.27	-0.008
329.48	-0.008
329.69	-0.008
329.90	-0.008
330.11	-0.008
330.32	-0.008
330.53	-0.008
330.74	-0.008
330.95	-0.008
331.16	-0.008
331.37	-0.008
331.58	-0.008
331.79	-0.008
332.00	-0.008
332.21	-0.008
332.42	-0.008
332.63	-0.008
332.83	-0.008
333.04	-0.008
333.25	-0.008
333.46	-0.008
333.67	-0.008
333.88	-0.008
334.09	-0.008
334.30	-0.008
334.51	-0.008
334.72	-0.008
334.93	-0.008
335.14	-0.008
335.35	-0.008
335.56	-0.008
335.77	-0.008
335.98	-0.008
336.18	-0.008
336.39	-0.008
336.60	-0.008
336.81	-0.008
337.02	-0.008
337.23	-0.008
337.44	-0.008
337.65	-0.008
337.86	-0.008
338.07	-0.008
338.28	-0.008
338.49	-0.008
338.70	-0.008
338.91	-0.008
339.11	-0.008
339.32	-0.008
339.53	-0.008
339.74	-0.008
339.95	-0.009
340.16	-0.008
340.37	-0.009
340.58	-0.009
340.79	-0.009
341.00	-0.009
341.21	-0.009
341.41	-0.009
341.62	-0.009
341.83	-0.009
342.04	-0.009
342.25	-0.009
342.46	-0.009
342.67	-0.009
342.88	-0.009
343.09	-0.009
343.30	-0.009
343.50	-0.009
343.71	-0.009
343.92	-0.009
344.13	-0.009
344.34	-0.009
344.55	-0.009
344.76	-0.009
344.97	-0.009
345.18	-0.009
345.38	-0.009
345.59	-0.009
345.80	-0.009
346.01	-0.009
346.22	-0.009
346.43	-0.009
346.64	-0.009
346.85	-0.009
347.06	-0.009
347.26	-0.009
347.47	-0.009
347.68	-0.009
347.89	-0.009
348.10	-0.009
348.31	-0.009
348.52	-0.009
348.73	-0.009
348.93	-0.009
349.14	-0.009
349.35	-0.010
349.56	-0.010
349.77	-0.010
349.98	-0.010
350.19	-0.010
350.39	-0.010
350.60	-0.010
350.81	-0.010
351.02	-0.010
351.23	-0.010
351.44	-0.010
351.65	-0.009
351.86	-0.009
352.06	-0.009
352.27	-0.009
352.48	-0.009
352.69	-0.009
352.90	-0.010
353.11	-0.010
353.31	-0.009
353.52	-0.009
353.73	-0.009
353.94	-0.009
354.15	-0.009
354.36	-0.010
354.57	-0.009
354.77	-0.009
354.98	-0.009
355.19	-0.009
355.40	-0.009
355.61	-0.009
355.82	-0.009
356.02	-0.009
356.23	-0.009
356.44	-0.009
356.65	-0.009
356.86	-0.009
357.07	-0.009
357.27	-0.009
357.48	-0.009
357.69	-0.009
357.90	-0.009
358.11	-0.009
358.32	-0.009
358.52	-0.009
358.73	-0.009
358.94	-0.009
359.15	-0.009
359.36	-0.009
359.56	-0.009
359.77	-0.009
359.98	-0.009
360.19	-0.009
360.40	-0.009
360.61	-0.009
360.81	-0.009
361.02	-0.009
361.23	-0.009
361.44	-0.009
361.65	-0.009
361.85	-0.009
362.06	-0.009
362.27	-0.009
362.48	-0.009
362.69	-0.009
362.89	-0.009
363.10	-0.009
363.31	-0.009
363.52	-0.009
363.73	-0.009
363.93	-0.009
364.14	-0.009
364.35	-0.009
364.56	-0.009
364.77	-0.009
364.97	-0.009
365.18	-0.009
365.39	-0.009
365.60	-0.009
365.81	-0.009
366.01	-0.009
366.22	-0.009
366.43	-0.009
366.64	-0.009
366.84	-0.009
367.05	-0.009
367.26	-0.009
367.47	-0.009
367.68	-0.009
367.88	-0.009
368.09	-0.009
368.30	-0.009
368.51	-0.008
368.71	-0.008
368.92	-0.008
369.13	-0.008
369.34	-0.008
369.55	-0.008
369.75	-0.008
369.96	-0.008
370.17	-0.008
370.38	-0.008
370.58	-0.008
370.79	-0.008
371.00	-0.009
371.21	-0.008
371.41	-0.008
371.62	-0.008
371.83	-0.008
372.04	-0.008
372.24	-0.008
372.45	-0.009
372.66	-0.008
372.87	-0.008
373.07	-0.008
373.28	-0.008
373.49	-0.008
373.70	-0.008
373.90	-0.008
374.11	-0.008
374.32	-0.008
374.53	-0.009
374.73	-0.009
374.94	-0.009
375.15	-0.008
375.36	-0.009
375.56	-0.008
375.77	-0.009
375.98	-0.009
376.19	-0.009
376.39	-0.009
376.60	-0.009
376.81	-0.009
377.02	-0.009
377.22	-0.008
377.43	-0.009
377.64	-0.009
377.84	-0.009
378.05	-0.009
378.26	-0.009
378.47	-0.009
378.67	-0.008
378.88	-0.008
379.09	-0.008
379.30	-0.009
379.50	-0.009
379.71	-0.009
379.92	-0.009
380.12	-0.009
380.33	-0.009
380.54	-0.008
380.75	-0.008
380.95	-0.008
381.16	-0.008
381.37	-0.008
381.57	-0.008
381.78	-0.009
381.99	-0.008
382.20	-0.008
382.40	-0.008
382.61	-0.008
382.82	-0.008
383.02	-0.008
383.23	-0.008
383.44	-0.008
383.64	-0.008
383.85	-0.008
384.06	-0.008
384.27	-0.008
384.47	-0.008
384.68	-0.008
384.89	-0.008
385.09	-0.008
385.30	-0.008
385.51	-0.008
385.71	-0.008
385.92	-0.008
386.13	-0.008
386.33	-0.008
386.54	-0.008
386.75	-0.008
386.95	-0.008
387.16	-0.008
387.37	-0.008
387.58	-0.008
387.78	-0.008
387.99	-0.008
388.20	-0.008
388.40	-0.008
388.61	-0.008
388.82	-0.008
389.02	-0.008
389.23	-0.008
389.44	-0.008
389.64	-0.008
389.85	-0.008
390.06	-0.008
390.26	-0.008
390.47	-0.008
390.68	-0.008
390.88	-0.008
391.09	-0.008
391.30	-0.008
391.50	-0.008
391.71	-0.009
391.92	-0.009
392.12	-0.009
392.33	-0.008
392.53	-0.008
392.74	-0.008
392.95	-0.008
393.15	-0.008
393.36	-0.008
393.57	-0.008
393.77	-0.008
393.98	-0.008
394.19	-0.008
394.39	-0.008
394.60	-0.008
394.81	-0.008
395.01	-0.008
395.22	-0.008
395.43	-0.008
395.63	-0.008
395.84	-0.008
396.04	-0.008
396.25	-0.008
396.46	-0.008
396.66	-0.008
396.87	-0.008
397.08	-0.008
397.28	-0.008
397.49	-0.008
397.69	-0.008
397.90	-0.008
398.11	-0.008
398.31	-0.008
398.52	-0.008
398.73	-0.008
398.93	-0.008
399.14	-0.008
399.34	-0.008
399.55	-0.008
399.76	-0.008
399.96	-0.008
400.17	-0.008
400.37	-0.008
400.58	-0.008
400.79	-0.008
400.99	-0.008
401.20	-0.008
401.41	-0.008
401.61	-0.008
401.82	-0.008
402.02	-0.008
402.23	-0.008
402.44	-0.008
402.64	-0.008
402.85	-0.008
403.05	-0.008
403.26	-0.008
403.47	-0.008
403.67	-0.008
403.88	-0.008
404.08	-0.008
404.29	-0.008
404.50	-0.008
404.70	-0.008
404.91	-0.008
405.11	-0.008
405.32	-0.008
405.52	-0.008
405.73	-0.008
405.94	-0.008
406.14	-0.009
406.35	-0.009
406.55	-0.009
406.76	-0.009
406.97	-0.009
407.17	-0.009
407.38	-0.008
407.58	-0.008
407.79	-0.008
407.99	-0.008
408.20	-0.008
408.41	-0.008
408.61	-0.008
408.82	-0.008
409.02	-0.008
409.23	-0.008
409.43	-0.008
409.64	-0.008
409.84	-0.008
410.05	-0.008
410.26	-0.008
410.46	-0.008
410.67	-0.008
410.87	-0.008
411.08	-0.008
411.28	-0.008
411.49	-0.008
411.69	-0.008
411.90	-0.008
412.11	-0.008
412.31	-0.008
412.52	-0.008
412.72	-0.008
412.93	-0.008
413.13	-0.008
413.34	-0.008
413.54	-0.008
413.75	-0.008
413.95	-0.008
414.16	-0.008
414.37	-0.008
414.57	-0.008
414.78	-0.008
414.98	-0.008
415.19	-0.008
415.39	-0.008
415.60	-0.008
415.80	-0.008
416.01	-0.008
416.21	-0.008
416.42	-0.008
416.62	-0.008
416.83	-0.008
417.03	-0.009
417.24	-0.009
417.44	-0.008
417.65	-0.009
417.86	-0.009
418.06	-0.009
418.27	-0.009
418.47	-0.009
418.68	-0.009
418.88	-0.009
419.09	-0.009
419.29	-0.009
419.50	-0.009
419.70	-0.009
419.91	-0.009
420.11	-0.009
420.32	-0.009
420.52	-0.009
420.73	-0.009
420.93	-0.009
421.14	-0.009
421.34	-0.009
421.55	-0.009
421.75	-0.008
421.96	-0.009
422.16	-0.009
422.37	-0.009
422.57	-0.009
422.78	-0.008
422.98	-0.008
423.19	-0.008
423.39	-0.008
423.60	-0.008
423.80	-0.008
424.01	-0.008
424.21	-0.008
424.42	-0.008
424.62	-0.007
424.83	-0.008
425.03	-0.008
425.23	-0.008
425.44	-0.008
425.64	-0.008
425.85	-0.008
426.05	-0.008
426.26	-0.008
426.46	-0.008
426.67	-0.008
426.87	-0.009
427.08	-0.009
427.28	-0.009
427.49	-0.009
427.69	-0.009
427.90	-0.009
428.10	-0.009
428.31	-0.009
428.51	-0.009
428.71	-0.009
428.92	-0.009
429.12	-0.009
429.33	-0.009
429.53	-0.009
429.74	-0.008
429.94	-0.008
430.15	-0.008
430.35	-0.008
430.56	-0.008
430.76	-0.008
430.96	-0.008
431.17	-0.008
431.37	-0.008
431.58	-0.007
431.78	-0.007
431.99	-0.007
432.19	-0.007
432.40	-0.007
432.60	-0.007
432.80	-0.007
433.01	-0.007
433.21	-0.007
433.42	-0.008
433.62	-0.008
433.83	-0.008
434.03	-0.008
434.23	-0.008
434.44	-0.008
434.64	-0.008
434.85	-0.008
435.05	-0.008
435.26	-0.008
435.46	-0.008
435.66	-0.008
435.87	-0.008
436.07	-0.008
436.28	-0.008
436.48	-0.008
436.69	-0.008
436.89	-0.008
437.09	-0.008
437.30	-0.008
437.50	-0.008
437.71	-0.008
437.91	-0.008
438.11	-0.008
438.32	-0.008
438.52	-0.008
438.73	-0.008
438.93	-0.008
439.13	-0.008
439.34	-0.008
439.54	-0.008
439.75	-0.008
439.95	-0.008
440.15	-0.008
440.36	-0.008
440.56	-0.008
440.77	-0.008
440.97	-0.008
441.17	-0.008
441.38	-0.008
441.58	-0.008
441.79	-0.008
441.99	-0.008
442.19	-0.008
442.40	-0.008
442.60	-0.008
442.81	-0.008
443.01	-0.008
443.21	-0.008
443.42	-0.008
443.62	-0.008
443.82	-0.008
444.03	-0.008
444.23	-0.008
444.44	-0.008
444.64	-0.008
444.84	-0.008
445.05	-0.008
445.25	-0.008
445.45	-0.008
445.66	-0.008
445.86	-0.008
446.06	-0.008
446.27	-0.008
446.47	-0.008
446.68	-0.008
446.88	-0.008
447.08	-0.008
447.29	-0.008
447.49	-0.008
447.69	-0.008
447.90	-0.008
448.10	-0.008
448.30	-0.008
448.51	-0.008
448.71	-0.008
448.91	-0.008
449.12	-0.008
449.32	-0.008
449.52	-0.007
449.73	-0.008
449.93	-0.007
450.14	-0.007
450.34	-0.008
450.54	-0.008
450.75	-0.007
450.95	-0.007
451.15	-0.007
451.36	-0.007
451.56	-0.007
451.76	-0.008
451.97	-0.008
452.17	-0.008
452.37	-0.008
452.58	-0.008
452.78	-0.008
452.98	-0.008
453.19	-0.008
453.39	-0.008
453.59	-0.008
453.79	-0.008
454.00	-0.008
454.20	-0.007
454.40	-0.007
454.61	-0.007
454.81	-0.007
455.01	-0.007
455.22	-0.008
455.42	-0.007
455.62	-0.007
455.83	-0.007
456.03	-0.007
456.23	-0.007
456.44	-0.007
456.64	-0.007
456.84	-0.007
457.04	-0.007
457.25	-0.007
457.45	-0.007
457.65	-0.007
457.86	-0.008
458.06	-0.008
458.26	-0.008
458.47	-0.008
458.67	-0.008
458.87	-0.008
459.07	-0.008
459.28	-0.008
459.48	-0.008
459.68	-0.008
459.89	-0.007
460.09	-0.007
460.29	-0.007
460.49	-0.007
460.70	-0.007
460.90	-0.007
461.10	-0.007
461.31	-0.007
461.51	-0.007
461.71	-0.007
461.91	-0.007
462.12	-0.007
462.32	-0.007
462.52	-0.007
462.72	-0.007
462.93	-0.007
463.13	-0.008
463.33	-0.008
463.53	-0.008
463.74	-0.008
463.94	-0.008
464.14	-0.008
464.35	-0.008
464.55	-0.008
464.75	-0.008
464.95	-0.008
465.16	-0.008
465.36	-0.008
465.56	-0.008
465.76	-0.008
465.97	-0.008
466.17	-0.008
466.37	-0.008
466.57	-0.008
466.78	-0.007
466.98	-0.007
467.18	-0.007
467.38	-0.007
467.59	-0.007
467.79	-0.007
467.99	-0.007
468.19	-0.007
468.39	-0.007
468.60	-0.007
468.80	-0.007
469.00	-0.007
469.20	-0.007
469.41	-0.007
469.61	-0.007
469.81	-0.007
470.01	-0.007
470.22	-0.008
470.42	-0.008
470.62	-0.008
470.82	-0.008
471.02	-0.008
471.23	-0.008
471.43	-0.008
471.63	-0.008
471.83	-0.008
472.04	-0.008
472.24	-0.008
472.44	-0.008
472.64	-0.008
472.84	-0.008
473.05	-0.008
473.25	-0.008
473.45	-0.008
473.65	-0.008
473.85	-0.008
474.06	-0.008
474.26	-0.008
474.46	-0.008
474.66	-0.008
474.86	-0.008
475.07	-0.008
475.27	-0.008
475.47	-0.007
475.67	-0.007
475.87	-0.007
476.08	-0.007
476.28	-0.007
476.48	-0.007
476.68	-0.007
476.88	-0.007
477.09	-0.007
477.29	-0.007
477.49	-0.007
477.69	-0.007
477.89	-0.007
478.09	-0.007
478.30	-0.008
478.50	-0.008
478.70	-0.008
478.90	-0.008
479.10	-0.008
479.31	-0.008
479.51	-0.008
479.71	-0.008
479.91	-0.008
480.11	-0.008
480.31	-0.008
480.52	-0.008
480.72	-0.008
480.92	-0.008
481.12	-0.008
481.32	-0.008
481.52	-0.008
481.72	-0.008
481.93	-0.008
482.13	-0.008
482.33	-0.008
482.53	-0.008
482.73	-0.008
482.93	-0.008
483.14	-0.008
483.34	-0.008
483.54	-0.008
483.74	-0.008
483.94	-0.008
484.14	-0.008
484.34	-0.008
484.55	-0.008
484.75	-0.008
484.95	-0.008
485.15	-0.008
485.35	-0.008
485.55	-0.007
485.75	-0.007
485.96	-0.007
486.16	-0.007
486.36	-0.007
486.56	-0.007
486.76	-0.007
486.96	-0.007
487.16	-0.007
487.36	-0.007
487.57	-0.007
487.77	-0.007
487.97	-0.007
488.17	-0.007
488.37	-0.007
488.57	-0.007
488.77	-0.007
488.97	-0.006
489.18	-0.006
489.38	-0.007
489.58	-0.007
489.78	-0.007
489.98	-0.007
490.18	-0.006
490.38	-0.006
490.58	-0.007
490.78	-0.007
490.98	-0.007
491.19	-0.007
491.39	-0.007
491.59	-0.007
491.79	-0.007
491.99	-0.007
492.19	-0.007
492.39	-0.007
492.59	-0.007
492.79	-0.007
492.99	-0.007
493.20	-0.007
493.40	-0.007
493.60	-0.007
493.80	-0.007
494.00	-0.007
494.20	-0.007
494.40	-0.007
494.60	-0.007
494.80	-0.007
495.00	-0.007
495.20	-0.007
495.40	-0.007
495.61	-0.007
495.81	-0.007
496.01	-0.007
496.21	-0.006
496.41	-0.006
496.61	-0.006
496.81	-0.006
497.01	-0.006
497.21	-0.006
497.41	-0.006
497.61	-0.006
497.81	-0.006
498.01	-0.006
498.21	-0.005
498.41	-0.006
498.61	-0.006
498.82	-0.006
499.02	-0.006
499.22	-0.006
499.42	-0.006
499.62	-0.006
499.82	-0.006
500.02	-0.006
500.22	-0.006
500.42	-0.006
500.62	-0.006
500.82	-0.006
501.02	-0.006
501.22	-0.006
501.42	-0.006
501.62	-0.006
501.82	-0.006
502.02	-0.006
502.22	-0.006
502.42	-0.006
502.62	-0.006
502.82	-0.006
503.02	-0.006
503.22	-0.006
503.42	-0.006
503.63	-0.006
503.83	-0.006
504.03	-0.006
504.23	-0.006
504.43	-0.006
504.63	-0.006
504.83	-0.006
505.03	-0.006
505.23	-0.006
505.43	-0.005
505.63	-0.006
505.83	-0.006
506.03	-0.005
506.23	-0.005
506.43	-0.005
506.63	-0.005
506.83	-0.005
507.03	-0.006
507.23	-0.006
507.43	-0.006
507.63	-0.006
507.83	-0.006
508.03	-0.006
508.23	-0.006
508.43	-0.006
508.63	-0.006
508.83	-0.006
509.03	-0.005
509.23	-0.005
509.43	-0.005
509.63	-0.005
509.83	-0.005
510.03	-0.005
510.23	-0.006
510.43	-0.006
510.63	-0.006
510.83	-0.006
511.03	-0.006
511.23	-0.006
511.43	-0.006
511.63	-0.006
511.83	-0.006
512.03	-0.006
512.22	-0.006
512.42	-0.006
512.62	-0.005
512.82	-0.005
513.02	-0.005
513.22	-0.005
513.42	-0.005
513.62	-0.005
513.82	-0.005
514.02	-0.005
514.22	-0.005
514.42	-0.005
514.62	-0.005
514.82	-0.005
515.02	-0.005
515.22	-0.005
515.42	-0.005
515.62	-0.005
515.82	-0.005
516.02	-0.006
516.22	-0.005
516.42	-0.005
516.62	-0.005
516.82	-0.006
517.01	-0.005
517.21	-0.005
517.41	-0.005
517.61	-0.005
517.81	-0.005
518.01	-0.005
518.21	-0.005
518.41	-0.005
518.61	-0.005
518.81	-0.005
519.01	-0.005
519.21	-0.005
519.41	-0.005
519.61	-0.005
519.81	-0.005
520.00	-0.005
520.20	-0.005
520.40	-0.005
520.60	-0.005
520.80	-0.005
521.00	-0.005
521.20	-0.005
521.40	-0.005
521.60	-0.005
521.80	-0.005
522.00	-0.005
522.20	-0.005
522.39	-0.005
522.59	-0.005
522.79	-0.005
522.99	-0.005
523.19	-0.005
523.39	-0.005
523.59	-0.005
523.79	-0.005
523.99	-0.005
524.19	-0.005
524.38	-0.005
524.58	-0.005
524.78	-0.005
524.98	-0.005
525.18	-0.005
525.38	-0.005
525.58	-0.005
525.78	-0.005
525.98	-0.005
526.18	-0.005
526.37	-0.005
526.57	-0.005
526.77	-0.005
526.97	-0.005
527.17	-0.005
527.37	-0.005
527.57	-0.005
527.77	-0.005
527.96	-0.005
528.16	-0.005
528.36	-0.005
528.56	-0.005
528.76	-0.005
528.96	-0.005
529.16	-0.005
529.36	-0.005
529.55	-0.005
529.75	-0.005
529.95	-0.005
530.15	-0.005
530.35	-0.005
530.55	-0.005
530.75	-0.005
530.94	-0.005
531.14	-0.005
531.34	-0.005
531.54	-0.005
531.74	-0.005
531.94	-0.005
532.13	-0.005
532.33	-0.005
532.53	-0.005
532.73	-0.005
532.93	-0.005
533.13	-0.005
533.33	-0.005
533.52	-0.005
533.72	-0.005
533.92	-0.005
534.12	-0.005
534.32	-0.005
534.52	-0.005
534.71	-0.005
534.91	-0.005
535.11	-0.005
535.31	-0.005
535.51	-0.005
535.71	-0.005
535.90	-0.005
536.10	-0.004
536.30	-0.004
536.50	-0.005
536.70	-0.005
536.89	-0.005
537.09	-0.005
537.29	-0.005
537.49	-0.005
537.69	-0.005
537.89	-0.005
538.08	-0.005
538.28	-0.005
538.48	-0.005
538.68	-0.005
538.88	-0.005
539.07	-0.005
539.27	-0.005
539.47	-0.005
539.67	-0.005
539.87	-0.005
540.06	-0.005
540.26	-0.004
540.46	-0.004
540.66	-0.004
540.86	-0.004
541.05	-0.004
541.25	-0.004
541.45	-0.004
541.65	-0.004
541.84	-0.004
542.04	-0.004
542.24	-0.004
542.44	-0.004
542.64	-0.005
542.83	-0.005
543.03	-0.005
543.23	-0.005
543.43	-0.005
543.62	-0.005
543.82	-0.005
544.02	-0.005
544.22	-0.005
544.42	-0.005
544.61	-0.005
544.81	-0.005
545.01	-0.005
545.21	-0.005
545.40	-0.005
545.60	-0.004
545.80	-0.004
546.00	-0.004
546.19	-0.004
546.39	-0.004
546.59	-0.004
546.79	-0.004
546.98	-0.004
547.18	-0.004
547.38	-0.004
547.58	-0.004
547.77	-0.004
547.97	-0.004
548.17	-0.004
548.37	-0.004
548.56	-0.004
548.76	-0.004
548.96	-0.004
549.16	-0.004
549.35	-0.004
549.55	-0.004
549.75	-0.004
549.95	-0.004
550.14	-0.004
550.34	-0.004
550.54	-0.004
550.73	-0.004
550.93	-0.004
551.13	-0.004
551.33	-0.004
551.52	-0.004
551.72	-0.004
551.92	-0.004
552.12	-0.004
552.31	-0.004
552.51	-0.004
552.71	-0.004
552.90	-0.004
553.10	-0.004
553.30	-0.004
553.50	-0.004
553.69	-0.004
553.89	-0.004
554.09	-0.004
554.28	-0.004
554.48	-0.004
554.68	-0.004
554.87	-0.004
555.07	-0.004
555.27	-0.004
555.47	-0.004
555.66	-0.004
555.86	-0.004
556.06	-0.003
556.25	-0.003
556.45	-0.003
556.65	-0.003
556.84	-0.003
557.04	-0.003
557.24	-0.003
557.43	-0.003
557.63	-0.003
557.83	-0.003
558.02	-0.003
558.22	-0.004
558.42	-0.004
558.61	-0.004
558.81	-0.004
559.01	-0.004
559.21	-0.004
559.40	-0.004
559.60	-0.004
559.80	-0.004
559.99	-0.004
560.19	-0.004
560.39	-0.004
560.58	-0.004
560.78	-0.004
560.97	-0.004
561.17	-0.004
561.37	-0.004
561.56	-0.004
561.76	-0.004
561.96	-0.004
562.15	-0.004
562.35	-0.004
562.55	-0.004
562.74	-0.004
562.94	-0.003
563.14	-0.003
563.33	-0.003
563.53	-0.003
563.73	-0.003
563.92	-0.003
564.12	-0.003
564.31	-0.004
564.51	-0.003
564.71	-0.003
564.90	-0.003
565.10	-0.003
565.30	-0.003
565.49	-0.003
565.69	-0.004
565.89	-0.004
566.08	-0.004
566.28	-0.004
566.47	-0.004
566.67	-0.004
566.87	-0.004
567.06	-0.004
567.26	-0.004
567.46	-0.004
567.65	-0.005
567.85	-0.005
568.04	-0.005
568.24	-0.005
568.44	-0.005
568.63	-0.005
568.83	-0.005
569.02	-0.005
569.22	-0.005
569.42	-0.005
569.61	-0.005
569.81	-0.005
570.00	-0.005
570.20	-0.005
570.40	-0.005
570.59	-0.005
570.79	-0.005
570.98	-0.005
571.18	-0.005
571.38	-0.005
571.57	-0.005
571.77	-0.006
571.96	-0.005
572.16	-0.005
572.35	-0.005
572.55	-0.005
572.75	-0.005
572.94	-0.005
573.14	-0.005
573.33	-0.005
573.53	-0.005
573.73	-0.004
573.92	-0.004
574.12	-0.004
574.31	-0.004
574.51	-0.004
574.70	-0.004
574.90	-0.003
575.09	-0.003
575.29	-0.003
575.49	-0.002
575.68	-0.002
575.88	-0.001
576.07	-0.001
576.27	-0.001
576.46	-0.000
576.66	-0.000
576.86	-0.000
577.05	-0.000
577.25	-0.000
577.44	-0.000
577.64	-0.000
577.83	-0.000
578.03	-0.000
578.22	-0.000
578.42	-0.000
578.61	-0.000
578.81	-0.000
579.00	-0.000
579.20	-0.000
579.40	-0.000
579.59	-0.000
579.79	-0.000
579.98	-0.000
580.18	-0.000
580.37	-0.000
580.57	-0.000
580.76	-0.000
580.96	-0.000
581.15	-0.000
581.35	-0.000
581.54	-0.000
581.74	-0.000
581.93	-0.000
582.13	-0.000
582.32	-0.000
582.52	-0.000
582.71	-0.000
582.91	-0.000
583.10	-0.000
583.30	-0.000
583.49	-0.000
583.69	-0.000
583.88	-0.000
584.08	-0.000
584.27	-0.000
584.47	-0.000
584.66	-0.000
584.86	-0.000
585.05	-0.000
585.25	-0.000
585.44	-0.000
585.64	-0.000
585.83	-0.000
586.03	-0.000
586.22	-0.000
586.42	-0.000
586.61	-0.000
586.81	-0.001
587.00	-0.001
587.20	-0.001
587.39	-0.001
587.59	-0.001
587.78	-0.002
587.98	-0.002
588.17	-0.002
588.37	-0.002
588.56	-0.003
588.76	-0.002
588.95	-0.003
589.15	-0.003
589.34	-0.003
589.54	-0.003
589.73	-0.003
589.92	-0.003
590.12	-0.003
590.31	-0.004
590.51	-0.004
590.70	-0.004
590.90	-0.004
591.09	-0.004
591.29	-0.004
591.48	-0.004
591.68	-0.004
591.87	-0.004
592.06	-0.004
592.26	-0.004
592.45	-0.004
592.65	-0.004
592.84	-0.004
593.04	-0.004
593.23	-0.004
593.43	-0.004
593.62	-0.003
593.81	-0.003
594.01	-0.003
594.20	-0.003
594.40	-0.003
594.59	-0.003
594.79	-0.002
594.98	-0.002
595.17	-0.002
595.37	-0.002
595.56	-0.002
595.76	-0.003
595.95	-0.003
596.14	-0.003
596.34	-0.003
596.53	-0.004
596.73	-0.004
596.92	-0.004
597.12	-0.005
597.31	-0.005
597.50	-0.005
597.70	-0.005
597.89	-0.005
598.09	-0.005
598.28	-0.005
598.47	-0.005
598.67	-0.005
598.86	-0.004
599.06	-0.004
599.25	-0.004
599.44	-0.004
599.64	-0.004
599.83	-0.003
600.03	-0.003
600.22	-0.003
600.41	-0.003
600.61	-0.002
600.80	-0.002
601.00	-0.002
601.19	-0.002
601.38	-0.002
601.58	-0.002
601.77	-0.002
601.96	-0.002
602.16	-0.002
602.35	-0.002
602.55	-0.003
602.74	-0.003
602.93	-0.003
603.13	-0.004
603.32	-0.004
603.51	-0.004
603.71	-0.004
603.90	-0.004
604.09	-0.005
604.29	-0.005
604.48	-0.005
604.68	-0.005
604.87	-0.005
605.06	-0.005
605.26	-0.004
605.45	-0.004
605.64	-0.004
605.84	-0.004
606.03	-0.004
606.22	-0.004
606.42	-0.004
606.61	-0.003
606.80	-0.003
607.00	-0.003
607.19	-0.003
607.38	-0.003
607.58	-0.003
607.77	-0.003
607.96	-0.002
608.16	-0.002
608.35	-0.002
608.54	-0.002
608.74	-0.002
608.93	-0.002
609.12	-0.002
609.32	-0.002
609.51	-0.002
609.70	-0.002
609.90	-0.002
610.09	-0.002
610.28	-0.002
610.48	-0.002
610.67	-0.003
610.86	-0.003
611.06	-0.003
611.25	-0.003
611.44	-0.003
611.64	-0.003
611.83	-0.003
612.02	-0.003
612.21	-0.003
612.41	-0.003
612.60	-0.003
612.79	-0.003
612.99	-0.003
613.18	-0.003
613.37	-0.003
613.57	-0.003
613.76	-0.003
613.95	-0.003
614.14	-0.003
614.34	-0.003
614.53	-0.003
614.72	-0.003
614.92	-0.002
615.11	-0.002
615.30	-0.002
615.49	-0.002
615.69	-0.002
615.88	-0.002
616.07	-0.002
616.26	-0.001
616.46	-0.001
616.65	-0.001
616.84	-0.001
617.04	-0.001
617.23	-0.001
617.42	-0.001
617.61	-0.001
617.81	-0.001
618.00	-0.001
618.19	-0.001
618.38	-0.001
618.58	-0.001
618.77	-0.002
618.96	-0.002
619.15	-0.002
619.35	-0.002
619.54	-0.002
619.73	-0.002
619.92	-0.002
620.12	-0.002
620.31	-0.002
620.50	-0.002
620.69	-0.002
620.89	-0.002
621.08	-0.002
621.27	-0.002
621.46	-0.002
621.66	-0.002
621.85	-0.002
622.04	-0.002
622.23	-0.002
622.43	-0.002
622.62	-0.002
622.81	-0.002
623.00	-0.002
623.19	-0.001
623.39	-0.001
623.58	-0.001
623.77	-0.001
623.96	-0.001
624.16	-0.001
624.35	-0.001
624.54	-0.001
624.73	-0.001
624.92	-0.002
625.12	-0.002
625.31	-0.002
625.50	-0.002
625.69	-0.002
625.88	-0.002
626.08	-0.001
626.27	-0.001
626.46	-0.001
626.65	-0.001
626.84	-0.001
627.04	-0.001
627.23	-0.001
627.42	-0.001
627.61	-0.001
627.80	-0.001
628.00	-0.001
628.19	-0.001
628.38	-0.001
628.57	-0.001
628.76	-0.001
628.96	-0.001
629.15	-0.001
629.34	-0.001
629.53	-0.000
629.72	-0.000
629.91	-0.000
630.11	-0.000
630.30	-0.000
630.49	-0.000
630.68	0.000
630.87	0.000
631.06	0.000
631.26	0.000
631.45	0.000
631.64	0.000
631.83	0.000
632.02	0.000
632.21	0.000
632.41	0.000
632.60	0.000
632.79	0.000
632.98	-0.000
633.17	-0.000
633.36	-0.000
633.55	-0.000
633.75	-0.000
633.94	-0.000
634.13	-0.000
634.32	-0.000
634.51	-0.000
634.70	-0.000
634.89	-0.000
635.09	-0.000
635.28	-0.000
635.47	0.000
635.66	0.000
635.85	0.000
636.04	0.000
636.23	0.000
636.43	0.000
636.62	0.000
636.81	0.000
637.00	0.001
637.19	0.000
637.38	0.001
637.57	0.000
637.76	0.000
637.95	0.000
638.15	0.000
638.34	0.001
638.53	0.001
638.72	0.001
638.91	0.001
639.10	0.001
639.29	0.001
639.48	0.001
639.67	0.001
639.87	0.001
640.06	0.001
640.25	0.001
640.44	0.000
640.63	0.000
640.82	0.000
641.01	0.000
641.20	0.000
641.39	0.000
641.58	0.001
641.78	0.001
641.97	0.001
642.16	0.001
642.35	0.001
642.54	0.001
642.73	0.001
642.92	0.001
643.11	0.001
643.30	0.001
643.49	0.001
643.68	0.001
643.87	0.001
644.06	0.001
644.25	0.001
644.45	0.001
644.64	0.001
644.83	0.001
645.02	0.001
645.21	0.000
645.40	0.000
645.59	0.000
645.78	0.000
645.97	0.000
646.16	-0.000
646.35	-0.000
646.54	-0.000
646.73	-0.000
646.92	-0.000
647.11	-0.000
647.30	-0.000
647.49	-0.001
647.68	-0.001
647.88	-0.001
648.07	-0.001
648.26	-0.000
648.45	-0.000
648.64	-0.001
648.83	-0.001
649.02	-0.001
649.21	-0.000
649.40	-0.000
649.59	0.000
649.78	0.000
649.97	0.001
650.16	0.000
650.35	0.001
650.54	0.001
650.73	0.001
650.92	0.001
651.11	0.001
651.30	0.001
651.49	0.001
651.68	0.001
651.87	0.001
652.06	0.001
652.25	0.001
652.44	0.001
652.63	-0.001
652.82	-0.002
653.01	-0.003
653.20	-0.004
653.39	-0.004
653.58	-0.005
653.77	-0.005
653.96	-0.005
654.15	-0.005
654.34	-0.005
654.53	-0.005
654.72	-0.005
654.91	-0.004
655.10	-0.003
655.29	-0.003
655.48	-0.003
655.67	-0.003
655.86	-0.003
656.05	-0.002
656.24	-0.002
656.43	-0.002
656.62	-0.002
656.81	-0.002
657.00	-0.001
657.19	0.000
657.38	0.001
657.57	0.002
657.76	0.002
657.95	0.003
658.14	0.003
658.33	0.004
658.51	0.004
658.70	0.004
658.89	0.004
659.08	0.004
659.27	0.003
659.46	0.002
659.65	0.002
659.84	0.002
660.03	0.001
660.22	0.001
660.41	0.001
660.60	0.001
660.79	0.001
660.98	0.001
661.17	0.001
661.36	0.001
661.55	0.001
661.74	0.001
661.92	0.001
662.11	0.001
662.30	0.001
662.49	0.001
662.68	0.001
662.87	0.001
663.06	0.001
663.25	0.001
663.44	0.001
663.63	0.001
663.82	0.001
664.01	0.001
664.20	0.001
664.38	0.001
664.57	0.001
664.76	0.001
664.95	0.001
665.14	0.001
665.33	0.001
665.52	0.001
665.71	0.001
665.90	0.001
666.09	0.001
666.28	0.001
666.46	0.001
666.65	0.001
666.84	0.001
667.03	0.001
667.22	0.001
667.41	0.001
667.60	0.001
667.79	0.001
667.98	0.001
668.16	0.001
668.35	0.001
668.54	0.001
668.73	0.001
668.92	0.001
669.11	0.001
669.30	0.000
669.49	0.000
669.67	0.000
669.86	0.000
670.05	0.000
670.24	0.000
670.43	-0.000
670.62	-0.000
670.81	-0.000
671.00	-0.000
671.18	-0.000
671.37	-0.000
671.56	-0.000
671.75	-0.000
671.94	-0.000
672.13	-0.000
672.32	-0.000
672.50	0.000
672.69	0.000
672.88	0.001
673.07	0.001
673.26	0.001
673.45	0.001
673.63	0.001
673.82	0.001
674.01	0.001
674.20	0.001
674.39	0.001
674.58	0.001
674.76	0.001
674.95	0.001
675.14	0.001
675.33	0.001
675.52	0.001
675.71	0.001
675.89	0.001
676.08	0.001
676.27	0.001
676.46	0.001
676.65	0.001
676.84	0.001
677.02	0.001
677.21	0.001
677.40	0.001
677.59	0.001
677.78	0.001
677.96	0.001
678.15	0.001
678.34	0.001
678.53	0.001
678.72	0.001
678.90	0.001
679.09	0.001
679.28	0.001
679.47	0.001
679.66	0.001
679.84	0.001
680.03	0.001
680.22	0.001
680.41	0.001
680.60	0.001
680.78	0.001
680.97	0.001
681.16	0.001
681.35	0.001
681.53	0.001
681.72	0.001
681.91	0.001
682.10	0.000
682.29	0.000
682.47	0.000
682.66	0.000
682.85	0.000
683.04	0.000
683.22	0.000
683.41	0.000
683.60	0.000
683.79	0.000
683.97	0.000
684.16	0.000
684.35	0.000
684.54	0.000
684.72	0.000
684.91	0.000
685.10	0.001
685.29	0.001
685.47	0.000
685.66	0.001
685.85	0.001
686.04	0.001
686.22	0.001
686.41	0.001
686.60	0.001
686.79	0.001
686.97	0.001
687.16	0.001
687.35	0.001
687.54	0.001
687.72	0.002
687.91	0.001
688.10	0.001
688.29	0.001
688.47	0.001
688.66	0.001
688.85	0.001
689.03	0.001
689.22	0.001
689.41	0.001
689.60	0.001
689.78	0.001
689.97	0.001
690.16	0.001
690.34	0.001
690.53	0.001
690.72	0.001
690.91	0.001
691.09	0.001
691.28	0.001
691.47	0.001
691.65	0.001
691.84	0.001
692.03	0.001
692.21	0.001
692.40	0.001
692.59	0.001
692.77	0.001
692.96	0.001
693.15	0.001
693.34	0.001
693.52	0.001
693.71	0.001
693.90	0.001
694.08	0.001
694.27	0.001
694.46	0.001
694.64	0.001
694.83	0.001
695.02	0.001
695.20	0.001
695.39	0.001
695.58	0.001
695.76	0.001
695.95	0.001
696.14	0.001
696.32	0.001
696.51	0.001
696.70	0.001
696.88	0.001
697.07	0.001
697.26	0.001
697.44	0.001
697.63	0.001
697.81	0.001
698.00	0.001
698.19	0.002
698.37	0.002
698.56	0.002
698.75	0.002
698.93	0.002
699.12	0.002
699.31	0.002
699.49	0.002
699.68	0.002
699.87	0.002
700.05	0.002
700.24	0.002
700.42	0.002
700.61	0.002
700.80	0.001
700.98	0.001
701.17	0.001
701.36	0.001
701.54	0.001
701.73	0.001
701.91	0.001
702.10	0.002
702.29	0.002
702.47	0.002
702.66	0.002
702.84	0.002
703.03	0.002
703.22	0.002
703.40	0.002
703.59	0.002
703.77	0.002
703.96	0.002
704.15	0.002
704.33	0.002
704.52	0.002
704.70	0.002
704.89	0.002
705.08	0.002
705.26	0.002
705.45	0.001
705.63	0.001
705.82	0.001
706.00	0.001
706.19	0.001
706.38	0.001
706.56	0.001
706.75	0.001
706.93	0.001
707.12	0.001
707.30	0.001
707.49	0.001
707.68	0.001
707.86	0.001
708.05	0.001
708.23	0.001
708.42	0.001
708.60	0.001
708.79	0.001
708.98	0.001
709.16	0.001
709.35	0.002
709.53	0.002
709.72	0.002
709.90	0.002
710.09	0.002
710.27	0.002
710.46	0.002
710.64	0.002
710.83	0.002
711.02	0.002
711.20	0.002
711.39	0.001
711.57	0.002
711.76	0.001
711.94	0.001
712.13	0.002
712.31	0.002
712.50	0.001
712.68	0.001
712.87	0.001
713.05	0.002
713.24	0.001
713.42	0.002
713.61	0.002
713.79	0.002
713.98	0.002
714.16	0.002
714.35	0.002
714.54	0.002
714.72	0.002
714.91	0.002
715.09	0.002
715.28	0.002
715.46	0.002
715.65	0.002
715.83	0.002
716.02	0.001
716.20	0.001
716.39	0.001
716.57	0.001
716.76	0.001
716.94	0.001
717.12	0.001
717.31	0.001
717.49	0.001
717.68	0.001
717.86	0.001
718.05	0.001
718.23	0.001
718.42	0.001
718.60	0.001
718.79	0.001
718.97	0.001
719.16	0.001
719.34	0.001
719.53	0.001
719.71	0.001
719.90	0.001
720.08	0.001
720.27	0.001
720.45	0.001
720.63	0.001
720.82	0.001
721.00	0.001
721.19	0.001
721.37	0.002
721.56	0.002
721.74	0.002
721.93	0.002
722.11	0.002
722.30	0.002
722.48	0.001
722.66	0.001
722.85	0.001
723.03	0.002
723.22	0.001
723.40	0.001
723.59	0.001
723.77	0.002
723.95	0.002
724.14	0.002
724.32	0.002
724.51	0.002
724.69	0.002
724.88	0.002
725.06	0.002
725.24	0.002
725.43	0.002
725.61	0.001
725.80	0.001
725.98	0.001
726.16	0.001
726.35	0.001
726.53	0.001
726.72	0.001
726.90	0.001
727.09	0.001
727.27	0.000
727.45	0.000
727.64	0.001
727.82	0.001
728.01	0.001
728.19	0.001
728.37	0.000
728.56	0.000
728.74	0.000
728.92	0.000
729.11	0.000
729.29	0.001
729.48	0.001
729.66	0.000
729.84	0.000
730.03	0.000
730.21	-0.000
730.40	0.000
730.58	0.000
730.76	-0.000
730.95	-0.000
731.13	-0.001
731.31	-0.001
731.50	-0.001
731.68	-0.000
731.86	0.000
732.05	0.000
732.23	0.001
732.42	0.001
732.60	0.001
732.78	0.001
732.97	0.000
733.15	0.000
733.33	0.001
733.52	0.000
733.70	-0.000
733.88	-0.000
734.07	-0.001
734.25	-0.001
734.43	-0.001
734.62	-0.001
734.80	-0.001
734.98	-0.001
735.17	-0.001
735.35	-0.002
735.53	-0.002
735.72	-0.001
735.90	-0.001
736.08	-0.001
736.27	-0.001
736.45	-0.002
736.63	-0.001
736.82	-0.001
737.00	-0.001
737.18	-0.001
737.37	-0.001
737.55	-0.002
737.73	-0.002
737.92	-0.002
738.10	-0.003
738.28	-0.003
738.46	-0.003
738.65	-0.003
738.83	-0.003
739.01	-0.003
739.20	-0.003
739.38	-0.003
739.56	-0.002
739.75	-0.003
739.93	-0.002
740.11	-0.002
740.29	-0.001
740.48	-0.001
740.66	-0.001
740.84	-0.001
741.03	-0.001
741.21	-0.001
741.39	-0.001
741.57	-0.001
741.76	-0.001
741.94	-0.001
742.12	-0.002
742.31	-0.002
742.49	-0.002
742.67	-0.002
742.85	-0.002
743.04	-0.002
743.22	-0.002
743.40	-0.002
743.58	-0.002
743.77	-0.002
743.95	-0.002
744.13	-0.002
744.31	-0.001
744.50	-0.002
744.68	-0.002
744.86	-0.001
745.04	-0.001
745.23	-0.001
745.41	-0.002
745.59	-0.002
745.77	-0.001
745.96	-0.001
746.14	-0.001
746.32	-0.001
746.50	-0.001
746.69	-0.001
746.87	-0.001
747.05	-0.001
747.23	-0.001
747.42	-0.001
747.60	-0.000
747.78	-0.000
747.96	0.000
748.14	0.000
748.33	0.001
748.51	0.001
748.69	0.001
748.87	0.001
749.06	0.001
749.24	0.002
749.42	0.001
749.60	0.001
749.78	0.001
749.97	0.001
750.15	0.000
750.33	0.000
750.51	0.000
750.69	0.000
750.88	-0.000
751.06	-0.000
751.24	-0.000
751.42	-0.000
751.60	-0.000
751.79	0.000
751.97	0.000
752.15	0.000
752.33	0.000
752.51	0.000
752.69	0.000
752.88	0.000
753.06	0.001
753.24	0.000
753.42	0.001
753.60	0.001
753.78	-0.000
753.97	-0.001
754.15	-0.000
754.33	-0.001
754.51	-0.002
754.69	-0.002
754.87	-0.002
755.06	-0.002
755.24	-0.002
755.42	-0.002
755.60	-0.002
755.78	-0.002
755.96	-0.001
756.15	-0.001
756.33	-0.001
756.51	-0.000
756.69	0.000
756.87	0.000
757.05	-0.000
757.23	-0.001
757.42	-0.001
757.60	-0.001
757.78	-0.001
757.96	-0.001
758.14	-0.001
758.32	-0.001
758.50	-0.001
758.69	-0.001
758.87	-0.001
759.05	-0.000
759.23	-0.000
759.41	0.001
759.59	0.001
759.77	0.001
759.95	0.001
760.13	0.000
760.32	0.000
760.50	0.001
760.68	0.001
760.86	0.001
761.04	0.001
761.22	0.001
761.40	0.001
761.58	0.000
761.76	0.000
761.95	0.000
762.13	0.001
762.31	0.001
762.49	0.001
762.67	0.001
762.85	0.001
763.03	0.000
763.21	0.001
763.39	0.001
763.57	0.001
763.75	0.001
763.94	0.001
764.12	0.001
764.30	0.001
764.48	0.001
764.66	0.001
764.84	0.001
765.02	0.001
765.20	0.000
765.38	0.001
765.56	0.001
765.74	0.001
765.92	0.001
766.10	0.001
766.28	0.001
766.46	0.001
766.65	0.001
766.83	0.001
767.01	0.001
767.19	0.001
767.37	0.001
767.55	0.001
767.73	0.001
767.91	0.001
768.09	0.001
768.27	0.002
768.45	0.002
768.63	0.002
768.81	0.001
768.99	0.002
769.17	0.002
769.35	0.002
769.53	0.002
769.71	0.002
769.89	0.002
770.07	0.002
770.25	0.003
770.43	0.003
770.61	0.003
770.79	0.004
770.97	0.004
771.15	0.003
771.33	0.004
771.51	0.004
771.69	0.004
771.87	0.003
772.05	0.003
772.24	0.002
772.42	0.002
772.60	0.002
772.78	0.002
772.96	0.003
773.14	0.003
773.32	0.002
773.49	0.003
773.67	0.003
773.85	0.003
774.03	0.003
774.21	0.003
774.39	0.003
774.57	0.003
774.75	0.003
774.93	0.002
775.11	0.003
775.29	0.003
775.47	0.003
775.65	0.003
775.83	0.003
776.01	0.003
776.19	0.003
776.37	0.003
776.55	0.003
776.73	0.003
776.91	0.003
777.09	0.003
777.27	0.002
777.45	0.002
777.63	0.002
777.81	0.003
777.99	0.003
778.17	0.003
778.35	0.003
778.53	0.003
778.71	0.003
778.89	0.003
779.07	0.002
779.24	0.002
779.42	0.001
779.60	0.002
779.78	0.001
779.96	0.001
780.14	0.001
780.32	0.000
780.50	0.001
780.68	0.000
780.86	0.001
781.04	0.001
781.22	0.001
781.40	0.002
781.58	0.002
781.75	0.002
781.93	0.002
782.11	0.003
782.29	0.003
782.47	0.003
782.65	0.004
782.83	0.004
783.01	0.004
783.19	0.004
783.37	0.004
783.55	0.004
783.72	0.004
783.90	0.005
784.08	0.005
784.26	0.005
784.44	0.004
784.62	0.004
784.80	0.004
784.98	0.004
785.16	0.004
785.33	0.004
785.51	0.004
785.69	0.004
785.87	0.003
786.05	0.003
786.23	0.003
786.41	0.003
786.59	0.003
786.77	0.003
786.94	0.003
787.12	0.002
787.30	0.002
787.48	0.002
787.66	0.002
787.84	0.002
788.02	0.002
788.19	0.002
788.37	0.002
788.55	0.003
788.73	0.002
788.91	0.003
789.09	0.003
789.27	0.003
789.44	0.003
789.62	0.003
789.80	0.003
789.98	0.003
790.16	0.003
790.34	0.003
790.51	0.003
790.69	0.003
790.87	0.003
791.05	0.003
791.23	0.003
791.41	0.003
791.58	0.003
791.76	0.003
791.94	0.003
792.12	0.004
792.30	0.004
792.48	0.003
792.65	0.004
792.83	0.003
793.01	0.004
793.19	0.004
793.37	0.004
793.54	0.004
793.72	0.004
793.90	0.004
794.08	0.004
794.26	0.004
794.43	0.004
794.61	0.004
794.79	0.004
794.97	0.004
795.15	0.003
795.32	0.004
795.50	0.004
795.68	0.004
795.86	0.004
796.04	0.004
796.21	0.004
796.39	0.004
796.57	0.003
796.75	0.004
796.92	0.004
797.10	0.004
797.28	0.004
797.46	0.004
797.64	0.003
797.81	0.003
797.99	0.003
798.17	0.003
798.35	0.004
798.52	0.004
798.70	0.004
798.88	0.004
799.06	0.004
799.23	0.004
799.41	0.004
799.59	0.004
799.77	0.005
799.94	0.005
800.12	0.004
800.30	0.004
800.48	0.004
800.65	0.004
800.83	0.004
801.01	0.004
801.19	0.004
801.36	0.004
801.54	0.004
801.72	0.004
801.90	0.003
802.07	0.003
802.25	0.003
802.43	0.003
802.60	0.004
802.78	0.004
802.96	0.004
803.14	0.005
803.31	0.004
803.49	0.005
803.67	0.005
803.84	0.004
804.02	0.005
804.20	0.005
804.38	0.005
804.55	0.005
804.73	0.004
804.91	0.004
805.08	0.004
805.26	0.004
805.44	0.004
805.61	0.004
805.79	0.005
805.97	0.005
806.15	0.004
806.32	0.004
806.50	0.004
806.68	0.004
806.85	0.004
807.03	0.004
807.21	0.003
807.38	0.003
807.56	0.003
807.74	0.003
807.91	0.003
808.09	0.003
808.27	0.003
808.44	0.003
808.62	0.004
808.80	0.004
808.97	0.004
809.15	0.004
809.33	0.004
809.50	0.004
809.68	0.004
809.86	0.004
810.03	0.004
810.21	0.003
810.39	0.004
810.56	0.003
810.74	0.003
810.91	0.003
811.09	0.003
811.27	0.003
811.44	0.003
811.62	0.003
811.80	0.002
811.97	0.003
812.15	0.003
812.33	0.004
812.50	0.004
812.68	0.004
812.85	0.004
813.03	0.004
813.21	0.005
813.38	0.004
813.56	0.005
813.74	0.005
813.91	0.004
814.09	0.004
814.26	0.004
814.44	0.004
814.62	0.004
814.79	0.004
814.97	0.004
815.14	0.004
815.32	0.004
815.50	0.004
815.67	0.004
815.85	0.004
816.02	0.004
816.20	0.004
816.38	0.003
816.55	0.003
816.73	0.004
816.90	0.004
817.08	0.004
817.26	0.003
817.43	0.003
817.61	0.004
817.78	0.003
817.96	0.003
818.13	0.003
818.31	0.003
818.49	0.003
818.66	0.003
818.84	0.003
819.01	0.003
819.19	0.003
819.36	0.003
819.54	0.003
819.71	0.003
819.89	0.003
820.07	0.004
820.24	0.004
820.42	0.004
820.59	0.004
820.77	0.004
820.94	0.004
821.12	0.005
821.29	0.004
821.47	0.004
821.64	0.004
821.82	0.005
822.00	0.004
822.17	0.005
822.35	0.004
822.52	0.004
822.70	0.004
822.87	0.004
823.05	0.003
823.22	0.004
823.40	0.004
823.57	0.003
823.75	0.003
823.92	0.003
824.10	0.003
824.27	0.003
824.45	0.003
824.62	0.002
824.80	0.002
824.97	0.003
825.15	0.002
825.32	0.003
825.50	0.003
825.67	0.003
825.85	0.003
826.02	0.004
826.20	0.004
826.37	0.004
826.55	0.004
826.72	0.005
826.90	0.004
827.07	0.005
827.25	0.005
827.42	0.005
827.60	0.005
827.77	0.005
827.95	0.005
828.12	0.006
828.30	0.006
828.47	0.006
828.65	0.006
828.82	0.007
829.00	0.006
829.17	0.006
829.34	0.006
829.52	0.005
829.69	0.006
829.87	0.006
830.04	0.005
830.22	0.005
830.39	0.005
830.57	0.005
830.74	0.005
830.92	0.005
831.09	0.005
831.26	0.005
831.44	0.006
831.61	0.007
831.79	0.008
831.96	0.008
832.14	0.007
832.31	0.007
832.49	0.007
832.66	0.006
832.83	0.006
833.01	0.006
833.18	0.007
833.36	0.005
833.53	0.003
833.70	0.001
833.88	0.002
834.05	0.001
834.23	0.001
834.40	0.001
834.58	0.002
834.75	0.001
834.92	0.001
835.10	-0.001
835.27	-0.002
835.45	-0.002
835.62	-0.001
835.79	0.000
835.97	-0.000
836.14	0.001
836.32	0.003
836.49	0.002
836.66	0.001
836.84	0.000
837.01	0.001
837.18	0.003
837.36	0.004
837.53	0.004
837.71	0.003
837.88	0.004
838.05	0.003
838.23	0.002
838.40	0.002
838.58	0.003
838.75	0.004
838.92	0.005
839.10	0.003
839.27	0.002
839.44	0.002
839.62	0.002
839.79	0.003
839.96	0.006
840.14	0.005
840.31	0.006
840.48	0.007
840.66	0.008
840.83	0.008
841.01	0.009
841.18	0.010
841.35	0.009
841.53	0.007
841.70	0.006
841.87	0.004
842.05	0.003
842.22	0.003
842.39	0.004
842.57	0.003
842.74	0.003
842.91	0.004
843.09	0.004
843.26	0.004
843.43	0.006
843.60	0.006
843.78	0.008
843.95	0.010
844.12	0.010
844.30	0.009
844.47	0.008
844.64	0.009
844.82	0.009
844.99	0.009
845.16	0.009
845.34	0.008
845.51	0.008
845.68	0.008
845.85	0.007
846.03	0.006
846.20	0.006
846.37	0.006
846.55	0.008
846.72	0.007
846.89	0.006
847.06	0.004
847.24	0.005
847.41	0.004
847.58	0.003
847.76	0.006
847.93	0.006
848.10	0.004
848.27	0.003
848.45	0.002
848.62	-0.000
848.79	-0.001
848.97	0.002
849.14	0.003
849.31	0.003
849.48	0.005
849.66	0.006
849.83	0.005
850.00	0.007
850.17	0.006
850.35	0.005
850.52	0.003
850.69	0.005
850.86	0.003
851.04	0.004
851.21	0.006
851.38	0.003
851.55	-0.001
851.72	-0.002
851.90	0.000
852.07	0.001
852.24	0.002
852.41	0.005
852.59	0.004
852.76	0.005
852.93	0.004
853.10	0.004
853.28	0.004
853.45	0.002
853.62	0.005
853.79	0.003
853.96	0.003
854.14	0.005
854.31	0.006
854.48	0.008
854.65	0.007
854.82	0.008
855.00	0.007
855.17	0.009
855.34	0.013
855.51	0.013
855.68	0.012
855.86	0.012
856.03	0.007
856.20	0.006
856.37	0.003
856.54	0.002
856.72	0.001
856.89	-0.001
857.06	-0.002
857.23	-0.002
857.40	-0.005
857.57	-0.004
857.75	-0.004
857.92	-0.001
858.09	-0.002
858.26	-0.001
858.43	-0.004
858.60	-0.004
858.78	-0.005
858.95	-0.003
859.12	-0.003
859.29	-0.004
859.46	-0.002
859.63	0.001
859.81	0.004
859.98	0.005
860.15	0.009
860.32	0.013
860.49	0.012
860.66	0.013
860.83	0.012
861.01	0.008
861.18	0.012
861.35	0.009
861.52	0.007
861.69	0.002
861.86	0.002
862.03	-0.000
862.21	0.000
862.38	0.003
862.55	0.005
862.72	0.007
862.89	0.010
863.06	0.008
863.23	0.010
863.40	0.010
863.58	0.010
863.75	0.010
863.92	0.008
864.09	0.007
864.26	0.004
864.43	0.002
864.60	0.003
864.77	0.002
864.94	0.006
865.11	0.006
865.29	0.005
865.46	0.007
865.63	0.008
865.80	0.007
865.97	0.009
866.14	0.011
866.31	0.011
866.48	0.011
866.65	0.015
866.82	0.011
866.99	0.010
867.16	0.007
867.34	0.006
867.51	0.006
867.68	0.006
867.85	0.004
868.02	0.001
868.19	-0.002
868.36	-0.005
868.53	-0.012
868.70	-0.011
868.87	-0.012
869.04	-0.010
869.21	-0.007
869.38	-0.010
869.55	-0.010
869.72	-0.010
869.89	-0.004
870.06	-0.001
870.24	0.003
870.41	0.005
870.58	0.002
870.75	0.006
870.92	0.009
871.09	0.005
871.26	0.007
871.43	0.015
871.60	0.019
871.77	0.014
871.94	0.017
872.11	0.015
872.28	0.013
872.45	0.017
872.62	0.012
872.79	0.009
872.96	0.010
873.13	0.003
873.30	-0.009
873.47	-0.013
873.64	-0.009
873.81	-0.011
873.98	-0.009
874.15	-0.004
874.32	-0.010
874.49	-0.002
874.66	-0.004
874.83	0.001
875.00	0.006
875.17	0.010
875.34	0.010
875.51	0.008
875.68	0.015
875.85	0.012
876.02	0.010
876.19	0.015
876.36	0.012
876.53	0.016
876.70	0.017
876.87	0.020
877.04	0.018
877.21	0.021
877.38	0.021
877.55	0.018
877.72	0.017
877.89	0.018
878.06	0.015
878.23	0.015
878.39	0.015
878.56	0.013
878.73	0.011
878.90	0.011
879.07	0.009
879.24	0.004
879.41	0.002
879.58	0.004
879.75	0.004
879.92	0.004
880.09	0.002
880.26	0.005
880.43	0.007
880.60	0.007
880.77	0.018
880.94	0.022
881.11	0.026
881.27	0.032
881.44	0.029
881.61	0.027
881.78	0.027
881.95	0.028
882.12	0.024
882.29	0.024
882.46	0.018
882.63	0.015
882.80	0.016
882.97	0.012
883.14	-0.001
883.30	0.002
883.47	0.006
883.64	0.005
883.81	0.010
883.98	0.013
884.15	0.011
884.32	0.022
884.49	0.020
884.66	0.017
884.82	0.023
884.99	0.023
885.16	0.024
885.33	0.016
885.50	0.024
885.67	0.020
885.84	0.016
886.01	0.013
886.17	0.002
886.34	0.006
886.51	0.011
886.68	0.008
886.85	0.012
887.02	0.015
887.19	0.021
887.36	0.010
887.52	0.008
887.69	0.013
887.86	0.019
888.03	0.020
888.20	0.017
888.37	0.006
888.54	0.008
888.70	0.006
888.87	0.006
889.04	0.001
889.21	0.004
889.38	0.011
889.55	0.004
889.71	0.080
889.88	-0.069
890.05	-0.042
890.22	0.068
890.39	-0.023
>>>>>End Processed Spectral Data<<<<<
