SpectraSuite Data File
++++++++++++++++++++++++++++++++++++
Date: Mon Jun 15 09:32:42 PDT 2015
User: introlabs
Dark Spectrum Present: Yes
Reference Spectrum Present: Yes
Number of Sampled Component Spectra: 1
Spectrometers: USB4H08886
Integration Time (usec): 44366 (USB4H08886)
Spectra Averaged: 20 (USB4H08886)
Boxcar Smoothing: 5 (USB4H08886)
Correct for Electrical Dark: Yes (USB4H08886)
Strobe/Lamp Enabled: No (USB4H08886)
Correct for Detector Non-linearity: Yes (USB4H08886)
Correct for Stray Light: Yes (USB4H08886)
Number of Pixels in Processed Spectrum: 3648
>>>>>Begin Processed Spectral Data<<<<<
178.14	0.574
178.36	0.574
178.57	0.574
178.79	-0.000
179.01	-0.256
179.22	0.839
179.44	-0.001
179.65	0.592
179.87	0.256
180.08	0.393
180.30	0.398
180.52	0.615
180.73	0.204
180.95	0.099
181.16	0.114
181.38	0.062
181.59	0.071
181.81	0.040
182.03	0.051
182.24	0.054
182.46	0.063
182.67	0.055
182.89	0.048
183.10	0.044
183.32	0.042
183.54	0.034
183.75	0.040
183.97	0.040
184.18	0.038
184.40	0.032
184.61	0.036
184.83	0.042
185.04	0.042
185.26	0.039
185.48	0.053
185.69	0.060
185.91	0.058
186.12	0.058
186.34	0.064
186.55	0.061
186.77	0.068
186.98	0.073
187.20	0.056
187.42	0.062
187.63	0.069
187.85	0.067
188.06	0.072
188.28	0.077
188.49	0.079
188.71	0.077
188.92	0.076
189.14	0.064
189.36	0.061
189.57	0.069
189.79	0.064
190.00	0.057
190.22	0.048
190.43	0.042
190.65	0.032
190.86	0.036
191.08	0.035
191.29	0.036
191.51	0.037
191.72	0.034
191.94	0.032
192.16	0.036
192.37	0.032
192.59	0.036
192.80	0.037
193.02	0.050
193.23	0.050
193.45	0.048
193.66	0.049
193.88	0.056
194.09	0.056
194.31	0.054
194.52	0.050
194.74	0.054
194.95	0.051
195.17	0.051
195.38	0.041
195.60	0.033
195.81	0.043
196.03	0.049
196.25	0.058
196.46	0.054
196.68	0.059
196.89	0.065
197.11	0.067
197.32	0.064
197.54	0.061
197.75	0.082
197.97	0.080
198.18	0.066
198.40	0.065
198.61	0.047
198.83	0.050
199.04	0.045
199.26	0.036
199.47	0.023
199.69	0.037
199.90	0.048
200.12	0.027
200.33	0.034
200.55	0.032
200.76	0.029
200.98	0.030
201.19	0.025
201.41	0.020
201.62	0.028
201.84	0.039
202.05	0.040
202.27	0.030
202.48	0.035
202.70	0.031
202.91	0.035
203.13	0.033
203.34	0.035
203.56	0.036
203.77	0.039
203.99	0.033
204.20	0.026
204.42	0.016
204.63	0.017
204.85	0.021
205.06	0.019
205.28	0.018
205.49	0.022
205.71	0.027
205.92	0.030
206.14	0.026
206.35	0.037
206.56	0.048
206.78	0.053
206.99	0.061
207.21	0.059
207.42	0.060
207.64	0.062
207.85	0.057
208.07	0.056
208.28	0.059
208.50	0.066
208.71	0.064
208.93	0.059
209.14	0.060
209.36	0.053
209.57	0.058
209.79	0.057
210.00	0.056
210.22	0.065
210.43	0.067
210.64	0.066
210.86	0.063
211.07	0.056
211.29	0.056
211.50	0.048
211.72	0.045
211.93	0.043
212.15	0.045
212.36	0.041
212.58	0.030
212.79	0.035
213.01	0.034
213.22	0.043
213.43	0.043
213.65	0.043
213.86	0.040
214.08	0.050
214.29	0.047
214.51	0.048
214.72	0.051
214.94	0.054
215.15	0.052
215.36	0.054
215.58	0.046
215.79	0.048
216.01	0.046
216.22	0.051
216.44	0.043
216.65	0.050
216.87	0.050
217.08	0.046
217.29	0.054
217.51	0.055
217.72	0.052
217.94	0.055
218.15	0.058
218.37	0.056
218.58	0.049
218.80	0.056
219.01	0.050
219.22	0.051
219.44	0.055
219.65	0.050
219.87	0.047
220.08	0.047
220.30	0.039
220.51	0.035
220.72	0.037
220.94	0.037
221.15	0.034
221.37	0.031
221.58	0.031
221.79	0.039
222.01	0.034
222.22	0.027
222.44	0.028
222.65	0.033
222.87	0.033
223.08	0.035
223.29	0.037
223.51	0.036
223.72	0.034
223.94	0.029
224.15	0.024
224.36	0.030
224.58	0.031
224.79	0.036
225.01	0.034
225.22	0.035
225.44	0.034
225.65	0.041
225.86	0.042
226.08	0.042
226.29	0.042
226.51	0.041
226.72	0.039
226.93	0.041
227.15	0.032
227.36	0.035
227.58	0.036
227.79	0.040
228.00	0.037
228.22	0.034
228.43	0.033
228.65	0.034
228.86	0.035
229.07	0.036
229.29	0.038
229.50	0.043
229.72	0.043
229.93	0.040
230.14	0.037
230.36	0.034
230.57	0.033
230.78	0.034
231.00	0.032
231.21	0.029
231.43	0.027
231.64	0.027
231.85	0.027
232.07	0.025
232.28	0.026
232.50	0.023
232.71	0.022
232.92	0.023
233.14	0.021
233.35	0.022
233.56	0.022
233.78	0.021
233.99	0.020
234.21	0.019
234.42	0.020
234.63	0.020
234.85	0.022
235.06	0.021
235.27	0.021
235.49	0.024
235.70	0.023
235.91	0.022
236.13	0.023
236.34	0.021
236.56	0.020
236.77	0.020
236.98	0.019
237.20	0.020
237.41	0.021
237.62	0.022
237.84	0.021
238.05	0.022
238.26	0.022
238.48	0.022
238.69	0.023
238.91	0.024
239.12	0.025
239.33	0.025
239.55	0.026
239.76	0.027
239.97	0.027
240.19	0.028
240.40	0.027
240.61	0.028
240.83	0.029
241.04	0.029
241.25	0.029
241.47	0.030
241.68	0.031
241.89	0.031
242.11	0.032
242.32	0.032
242.53	0.032
242.75	0.033
242.96	0.034
243.17	0.035
243.39	0.036
243.60	0.036
243.81	0.035
244.03	0.035
244.24	0.035
244.45	0.036
244.67	0.036
244.88	0.038
245.09	0.038
245.31	0.039
245.52	0.040
245.73	0.039
245.95	0.040
246.16	0.041
246.37	0.041
246.59	0.042
246.80	0.042
247.01	0.043
247.23	0.042
247.44	0.042
247.65	0.042
247.87	0.042
248.08	0.043
248.29	0.043
248.51	0.043
248.72	0.044
248.93	0.044
249.15	0.045
249.36	0.045
249.57	0.045
249.78	0.045
250.00	0.046
250.21	0.046
250.42	0.047
250.64	0.046
250.85	0.047
251.06	0.047
251.28	0.047
251.49	0.047
251.70	0.046
251.92	0.047
252.13	0.047
252.34	0.047
252.55	0.047
252.77	0.047
252.98	0.047
253.19	0.047
253.41	0.047
253.62	0.048
253.83	0.048
254.05	0.049
254.26	0.048
254.47	0.048
254.68	0.048
254.90	0.048
255.11	0.049
255.32	0.049
255.54	0.049
255.75	0.049
255.96	0.048
256.17	0.048
256.39	0.048
256.60	0.048
256.81	0.048
257.03	0.048
257.24	0.048
257.45	0.048
257.66	0.047
257.88	0.047
258.09	0.047
258.30	0.047
258.51	0.046
258.73	0.046
258.94	0.046
259.15	0.046
259.37	0.046
259.58	0.045
259.79	0.045
260.00	0.045
260.22	0.045
260.43	0.045
260.64	0.044
260.85	0.044
261.07	0.044
261.28	0.043
261.49	0.043
261.71	0.043
261.92	0.043
262.13	0.043
262.34	0.043
262.56	0.043
262.77	0.042
262.98	0.042
263.19	0.042
263.41	0.042
263.62	0.041
263.83	0.041
264.04	0.040
264.26	0.040
264.47	0.039
264.68	0.039
264.89	0.039
265.11	0.039
265.32	0.039
265.53	0.038
265.74	0.038
265.96	0.038
266.17	0.038
266.38	0.038
266.59	0.038
266.81	0.038
267.02	0.037
267.23	0.036
267.44	0.036
267.65	0.036
267.87	0.035
268.08	0.034
268.29	0.034
268.50	0.034
268.72	0.034
268.93	0.033
269.14	0.033
269.35	0.032
269.57	0.032
269.78	0.032
269.99	0.031
270.20	0.031
270.41	0.031
270.63	0.031
270.84	0.030
271.05	0.030
271.26	0.030
271.48	0.029
271.69	0.029
271.90	0.029
272.11	0.029
272.32	0.028
272.54	0.028
272.75	0.027
272.96	0.027
273.17	0.027
273.39	0.027
273.60	0.026
273.81	0.026
274.02	0.026
274.23	0.026
274.45	0.026
274.66	0.026
274.87	0.026
275.08	0.025
275.29	0.025
275.51	0.025
275.72	0.025
275.93	0.025
276.14	0.025
276.35	0.026
276.57	0.026
276.78	0.026
276.99	0.026
277.20	0.026
277.41	0.025
277.63	0.026
277.84	0.025
278.05	0.025
278.26	0.025
278.47	0.025
278.69	0.025
278.90	0.026
279.11	0.026
279.32	0.026
279.53	0.026
279.74	0.026
279.96	0.026
280.17	0.027
280.38	0.027
280.59	0.027
280.80	0.027
281.02	0.027
281.23	0.027
281.44	0.028
281.65	0.028
281.86	0.028
282.07	0.028
282.29	0.028
282.50	0.028
282.71	0.028
282.92	0.028
283.13	0.028
283.35	0.028
283.56	0.028
283.77	0.028
283.98	0.029
284.19	0.029
284.40	0.029
284.62	0.030
284.83	0.030
285.04	0.030
285.25	0.031
285.46	0.031
285.67	0.032
285.88	0.033
286.10	0.033
286.31	0.034
286.52	0.035
286.73	0.035
286.94	0.036
287.15	0.037
287.37	0.037
287.58	0.038
287.79	0.038
288.00	0.039
288.21	0.039
288.42	0.040
288.63	0.040
288.85	0.041
289.06	0.041
289.27	0.042
289.48	0.042
289.69	0.043
289.90	0.043
290.11	0.044
290.33	0.044
290.54	0.045
290.75	0.045
290.96	0.045
291.17	0.046
291.38	0.046
291.59	0.047
291.81	0.047
292.02	0.047
292.23	0.047
292.44	0.048
292.65	0.048
292.86	0.048
293.07	0.048
293.28	0.049
293.50	0.049
293.71	0.049
293.92	0.049
294.13	0.049
294.34	0.049
294.55	0.049
294.76	0.049
294.97	0.049
295.19	0.049
295.40	0.049
295.61	0.049
295.82	0.049
296.03	0.049
296.24	0.049
296.45	0.049
296.66	0.049
296.87	0.049
297.09	0.049
297.30	0.049
297.51	0.049
297.72	0.049
297.93	0.049
298.14	0.049
298.35	0.049
298.56	0.049
298.77	0.049
298.99	0.049
299.20	0.049
299.41	0.049
299.62	0.049
299.83	0.049
300.04	0.049
300.25	0.049
300.46	0.049
300.67	0.049
300.88	0.049
301.10	0.049
301.31	0.049
301.52	0.049
301.73	0.049
301.94	0.049
302.15	0.049
302.36	0.049
302.57	0.049
302.78	0.049
302.99	0.048
303.20	0.048
303.41	0.048
303.63	0.048
303.84	0.048
304.05	0.048
304.26	0.048
304.47	0.048
304.68	0.048
304.89	0.048
305.10	0.048
305.31	0.048
305.52	0.048
305.73	0.048
305.94	0.048
306.15	0.048
306.37	0.049
306.58	0.049
306.79	0.049
307.00	0.049
307.21	0.048
307.42	0.049
307.63	0.048
307.84	0.048
308.05	0.048
308.26	0.048
308.47	0.048
308.68	0.048
308.89	0.048
309.10	0.048
309.31	0.048
309.52	0.048
309.73	0.047
309.95	0.047
310.16	0.047
310.37	0.047
310.58	0.047
310.79	0.047
311.00	0.047
311.21	0.047
311.42	0.047
311.63	0.047
311.84	0.047
312.05	0.047
312.26	0.047
312.47	0.047
312.68	0.047
312.89	0.047
313.10	0.047
313.31	0.047
313.52	0.047
313.73	0.047
313.94	0.047
314.15	0.047
314.36	0.047
314.57	0.047
314.78	0.047
314.99	0.047
315.21	0.047
315.42	0.046
315.63	0.047
315.84	0.047
316.05	0.047
316.26	0.047
316.47	0.047
316.68	0.047
316.89	0.047
317.10	0.047
317.31	0.047
317.52	0.047
317.73	0.047
317.94	0.047
318.15	0.047
318.36	0.047
318.57	0.047
318.78	0.047
318.99	0.046
319.20	0.046
319.41	0.046
319.62	0.046
319.83	0.046
320.04	0.046
320.25	0.046
320.46	0.046
320.67	0.046
320.88	0.046
321.09	0.046
321.30	0.046
321.51	0.046
321.72	0.046
321.93	0.046
322.14	0.046
322.35	0.046
322.56	0.046
322.77	0.046
322.98	0.046
323.19	0.046
323.40	0.046
323.61	0.045
323.82	0.046
324.03	0.046
324.24	0.046
324.45	0.046
324.66	0.046
324.87	0.046
325.08	0.046
325.29	0.046
325.50	0.045
325.71	0.045
325.92	0.046
326.13	0.045
326.34	0.045
326.55	0.045
326.76	0.045
326.97	0.045
327.18	0.045
327.39	0.045
327.60	0.045
327.80	0.045
328.01	0.045
328.22	0.045
328.43	0.045
328.64	0.045
328.85	0.046
329.06	0.046
329.27	0.045
329.48	0.045
329.69	0.045
329.90	0.045
330.11	0.046
330.32	0.045
330.53	0.045
330.74	0.045
330.95	0.045
331.16	0.045
331.37	0.045
331.58	0.045
331.79	0.045
332.00	0.045
332.21	0.045
332.42	0.045
332.63	0.045
332.83	0.045
333.04	0.045
333.25	0.045
333.46	0.045
333.67	0.045
333.88	0.045
334.09	0.045
334.30	0.045
334.51	0.045
334.72	0.045
334.93	0.045
335.14	0.045
335.35	0.045
335.56	0.045
335.77	0.045
335.98	0.045
336.18	0.045
336.39	0.045
336.60	0.045
336.81	0.045
337.02	0.046
337.23	0.046
337.44	0.046
337.65	0.046
337.86	0.046
338.07	0.046
338.28	0.046
338.49	0.046
338.70	0.046
338.91	0.045
339.11	0.045
339.32	0.045
339.53	0.045
339.74	0.045
339.95	0.045
340.16	0.045
340.37	0.045
340.58	0.045
340.79	0.045
341.00	0.045
341.21	0.045
341.41	0.045
341.62	0.045
341.83	0.045
342.04	0.045
342.25	0.045
342.46	0.045
342.67	0.045
342.88	0.045
343.09	0.045
343.30	0.045
343.50	0.045
343.71	0.045
343.92	0.046
344.13	0.046
344.34	0.046
344.55	0.046
344.76	0.046
344.97	0.046
345.18	0.046
345.38	0.045
345.59	0.045
345.80	0.045
346.01	0.046
346.22	0.045
346.43	0.046
346.64	0.046
346.85	0.046
347.06	0.046
347.26	0.046
347.47	0.046
347.68	0.046
347.89	0.046
348.10	0.046
348.31	0.046
348.52	0.046
348.73	0.046
348.93	0.046
349.14	0.046
349.35	0.046
349.56	0.046
349.77	0.045
349.98	0.046
350.19	0.046
350.39	0.046
350.60	0.046
350.81	0.045
351.02	0.045
351.23	0.045
351.44	0.046
351.65	0.046
351.86	0.046
352.06	0.046
352.27	0.046
352.48	0.046
352.69	0.046
352.90	0.046
353.11	0.046
353.31	0.046
353.52	0.046
353.73	0.046
353.94	0.046
354.15	0.046
354.36	0.046
354.57	0.046
354.77	0.046
354.98	0.046
355.19	0.046
355.40	0.046
355.61	0.046
355.82	0.046
356.02	0.046
356.23	0.046
356.44	0.046
356.65	0.046
356.86	0.046
357.07	0.046
357.27	0.046
357.48	0.047
357.69	0.046
357.90	0.047
358.11	0.046
358.32	0.047
358.52	0.046
358.73	0.046
358.94	0.046
359.15	0.046
359.36	0.046
359.56	0.046
359.77	0.046
359.98	0.046
360.19	0.046
360.40	0.046
360.61	0.046
360.81	0.046
361.02	0.046
361.23	0.046
361.44	0.046
361.65	0.046
361.85	0.046
362.06	0.046
362.27	0.046
362.48	0.046
362.69	0.046
362.89	0.046
363.10	0.046
363.31	0.046
363.52	0.046
363.73	0.046
363.93	0.046
364.14	0.046
364.35	0.046
364.56	0.046
364.77	0.046
364.97	0.046
365.18	0.046
365.39	0.046
365.60	0.046
365.81	0.046
366.01	0.046
366.22	0.046
366.43	0.046
366.64	0.046
366.84	0.046
367.05	0.046
367.26	0.046
367.47	0.046
367.68	0.046
367.88	0.046
368.09	0.046
368.30	0.046
368.51	0.046
368.71	0.047
368.92	0.047
369.13	0.047
369.34	0.047
369.55	0.047
369.75	0.047
369.96	0.047
370.17	0.046
370.38	0.046
370.58	0.046
370.79	0.046
371.00	0.046
371.21	0.046
371.41	0.046
371.62	0.046
371.83	0.046
372.04	0.046
372.24	0.046
372.45	0.046
372.66	0.046
372.87	0.046
373.07	0.046
373.28	0.046
373.49	0.046
373.70	0.046
373.90	0.046
374.11	0.046
374.32	0.046
374.53	0.046
374.73	0.046
374.94	0.046
375.15	0.046
375.36	0.046
375.56	0.046
375.77	0.046
375.98	0.046
376.19	0.046
376.39	0.046
376.60	0.046
376.81	0.046
377.02	0.046
377.22	0.046
377.43	0.046
377.64	0.046
377.84	0.046
378.05	0.046
378.26	0.046
378.47	0.046
378.67	0.046
378.88	0.046
379.09	0.046
379.30	0.046
379.50	0.046
379.71	0.045
379.92	0.046
380.12	0.045
380.33	0.045
380.54	0.046
380.75	0.045
380.95	0.045
381.16	0.045
381.37	0.045
381.57	0.045
381.78	0.045
381.99	0.046
382.20	0.045
382.40	0.046
382.61	0.046
382.82	0.046
383.02	0.046
383.23	0.046
383.44	0.046
383.64	0.046
383.85	0.046
384.06	0.046
384.27	0.046
384.47	0.046
384.68	0.046
384.89	0.046
385.09	0.046
385.30	0.046
385.51	0.045
385.71	0.045
385.92	0.045
386.13	0.045
386.33	0.045
386.54	0.045
386.75	0.045
386.95	0.045
387.16	0.045
387.37	0.045
387.58	0.045
387.78	0.045
387.99	0.045
388.20	0.045
388.40	0.045
388.61	0.045
388.82	0.045
389.02	0.045
389.23	0.045
389.44	0.045
389.64	0.045
389.85	0.045
390.06	0.045
390.26	0.045
390.47	0.045
390.68	0.045
390.88	0.045
391.09	0.045
391.30	0.045
391.50	0.045
391.71	0.045
391.92	0.045
392.12	0.045
392.33	0.045
392.53	0.045
392.74	0.045
392.95	0.045
393.15	0.045
393.36	0.045
393.57	0.045
393.77	0.045
393.98	0.045
394.19	0.045
394.39	0.045
394.60	0.045
394.81	0.045
395.01	0.045
395.22	0.045
395.43	0.045
395.63	0.045
395.84	0.044
396.04	0.044
396.25	0.044
396.46	0.044
396.66	0.044
396.87	0.044
397.08	0.044
397.28	0.044
397.49	0.044
397.69	0.044
397.90	0.044
398.11	0.044
398.31	0.044
398.52	0.044
398.73	0.044
398.93	0.044
399.14	0.044
399.34	0.044
399.55	0.044
399.76	0.044
399.96	0.044
400.17	0.044
400.37	0.044
400.58	0.044
400.79	0.044
400.99	0.044
401.20	0.044
401.41	0.044
401.61	0.044
401.82	0.044
402.02	0.044
402.23	0.044
402.44	0.044
402.64	0.044
402.85	0.044
403.05	0.044
403.26	0.044
403.47	0.044
403.67	0.044
403.88	0.044
404.08	0.044
404.29	0.044
404.50	0.044
404.70	0.043
404.91	0.043
405.11	0.043
405.32	0.043
405.52	0.043
405.73	0.043
405.94	0.043
406.14	0.043
406.35	0.043
406.55	0.043
406.76	0.043
406.97	0.043
407.17	0.043
407.38	0.043
407.58	0.043
407.79	0.043
407.99	0.043
408.20	0.043
408.41	0.043
408.61	0.043
408.82	0.043
409.02	0.043
409.23	0.043
409.43	0.043
409.64	0.043
409.84	0.043
410.05	0.043
410.26	0.043
410.46	0.043
410.67	0.043
410.87	0.043
411.08	0.043
411.28	0.043
411.49	0.043
411.69	0.043
411.90	0.043
412.11	0.043
412.31	0.043
412.52	0.043
412.72	0.043
412.93	0.043
413.13	0.043
413.34	0.043
413.54	0.043
413.75	0.043
413.95	0.043
414.16	0.043
414.37	0.043
414.57	0.043
414.78	0.043
414.98	0.043
415.19	0.043
415.39	0.043
415.60	0.043
415.80	0.043
416.01	0.043
416.21	0.043
416.42	0.043
416.62	0.042
416.83	0.042
417.03	0.042
417.24	0.042
417.44	0.042
417.65	0.042
417.86	0.042
418.06	0.042
418.27	0.042
418.47	0.042
418.68	0.042
418.88	0.042
419.09	0.042
419.29	0.042
419.50	0.041
419.70	0.041
419.91	0.041
420.11	0.041
420.32	0.041
420.52	0.041
420.73	0.042
420.93	0.042
421.14	0.042
421.34	0.042
421.55	0.042
421.75	0.042
421.96	0.042
422.16	0.042
422.37	0.042
422.57	0.042
422.78	0.042
422.98	0.042
423.19	0.042
423.39	0.042
423.60	0.042
423.80	0.042
424.01	0.042
424.21	0.042
424.42	0.042
424.62	0.042
424.83	0.042
425.03	0.042
425.23	0.042
425.44	0.042
425.64	0.042
425.85	0.042
426.05	0.042
426.26	0.042
426.46	0.042
426.67	0.042
426.87	0.042
427.08	0.042
427.28	0.041
427.49	0.041
427.69	0.041
427.90	0.041
428.10	0.041
428.31	0.041
428.51	0.041
428.71	0.041
428.92	0.041
429.12	0.041
429.33	0.041
429.53	0.041
429.74	0.041
429.94	0.041
430.15	0.041
430.35	0.041
430.56	0.041
430.76	0.042
430.96	0.042
431.17	0.042
431.37	0.042
431.58	0.042
431.78	0.042
431.99	0.042
432.19	0.042
432.40	0.042
432.60	0.042
432.80	0.042
433.01	0.042
433.21	0.042
433.42	0.042
433.62	0.042
433.83	0.041
434.03	0.041
434.23	0.041
434.44	0.041
434.64	0.041
434.85	0.041
435.05	0.041
435.26	0.041
435.46	0.041
435.66	0.041
435.87	0.041
436.07	0.041
436.28	0.041
436.48	0.041
436.69	0.041
436.89	0.041
437.09	0.041
437.30	0.041
437.50	0.041
437.71	0.041
437.91	0.041
438.11	0.041
438.32	0.041
438.52	0.041
438.73	0.041
438.93	0.041
439.13	0.041
439.34	0.041
439.54	0.041
439.75	0.041
439.95	0.041
440.15	0.041
440.36	0.040
440.56	0.040
440.77	0.040
440.97	0.041
441.17	0.040
441.38	0.040
441.58	0.040
441.79	0.040
441.99	0.040
442.19	0.040
442.40	0.040
442.60	0.040
442.81	0.040
443.01	0.040
443.21	0.040
443.42	0.040
443.62	0.040
443.82	0.040
444.03	0.040
444.23	0.040
444.44	0.041
444.64	0.041
444.84	0.041
445.05	0.041
445.25	0.041
445.45	0.041
445.66	0.041
445.86	0.041
446.06	0.040
446.27	0.041
446.47	0.041
446.68	0.040
446.88	0.040
447.08	0.040
447.29	0.040
447.49	0.040
447.69	0.040
447.90	0.040
448.10	0.040
448.30	0.040
448.51	0.040
448.71	0.040
448.91	0.040
449.12	0.040
449.32	0.040
449.52	0.040
449.73	0.040
449.93	0.040
450.14	0.040
450.34	0.040
450.54	0.040
450.75	0.040
450.95	0.040
451.15	0.040
451.36	0.040
451.56	0.040
451.76	0.040
451.97	0.040
452.17	0.040
452.37	0.040
452.58	0.040
452.78	0.040
452.98	0.040
453.19	0.040
453.39	0.040
453.59	0.040
453.79	0.040
454.00	0.040
454.20	0.040
454.40	0.040
454.61	0.040
454.81	0.040
455.01	0.040
455.22	0.040
455.42	0.040
455.62	0.040
455.83	0.040
456.03	0.040
456.23	0.040
456.44	0.040
456.64	0.040
456.84	0.040
457.04	0.040
457.25	0.040
457.45	0.039
457.65	0.039
457.86	0.039
458.06	0.039
458.26	0.039
458.47	0.039
458.67	0.039
458.87	0.039
459.07	0.039
459.28	0.039
459.48	0.039
459.68	0.039
459.89	0.039
460.09	0.039
460.29	0.039
460.49	0.039
460.70	0.039
460.90	0.039
461.10	0.040
461.31	0.040
461.51	0.040
461.71	0.040
461.91	0.040
462.12	0.039
462.32	0.039
462.52	0.039
462.72	0.039
462.93	0.039
463.13	0.039
463.33	0.039
463.53	0.039
463.74	0.039
463.94	0.039
464.14	0.039
464.35	0.039
464.55	0.038
464.75	0.038
464.95	0.038
465.16	0.038
465.36	0.039
465.56	0.039
465.76	0.039
465.97	0.039
466.17	0.039
466.37	0.039
466.57	0.039
466.78	0.039
466.98	0.039
467.18	0.039
467.38	0.039
467.59	0.039
467.79	0.039
467.99	0.039
468.19	0.039
468.39	0.039
468.60	0.039
468.80	0.039
469.00	0.039
469.20	0.039
469.41	0.039
469.61	0.039
469.81	0.038
470.01	0.038
470.22	0.038
470.42	0.038
470.62	0.038
470.82	0.038
471.02	0.038
471.23	0.038
471.43	0.038
471.63	0.038
471.83	0.038
472.04	0.038
472.24	0.038
472.44	0.038
472.64	0.038
472.84	0.038
473.05	0.038
473.25	0.037
473.45	0.037
473.65	0.037
473.85	0.037
474.06	0.037
474.26	0.037
474.46	0.038
474.66	0.038
474.86	0.038
475.07	0.038
475.27	0.038
475.47	0.038
475.67	0.038
475.87	0.038
476.08	0.038
476.28	0.038
476.48	0.038
476.68	0.038
476.88	0.038
477.09	0.038
477.29	0.038
477.49	0.038
477.69	0.038
477.89	0.038
478.09	0.038
478.30	0.038
478.50	0.038
478.70	0.038
478.90	0.038
479.10	0.037
479.31	0.037
479.51	0.037
479.71	0.037
479.91	0.037
480.11	0.037
480.31	0.037
480.52	0.037
480.72	0.038
480.92	0.038
481.12	0.038
481.32	0.038
481.52	0.038
481.72	0.037
481.93	0.037
482.13	0.037
482.33	0.037
482.53	0.037
482.73	0.037
482.93	0.037
483.14	0.037
483.34	0.037
483.54	0.037
483.74	0.037
483.94	0.037
484.14	0.037
484.34	0.037
484.55	0.037
484.75	0.037
484.95	0.037
485.15	0.037
485.35	0.037
485.55	0.037
485.75	0.037
485.96	0.037
486.16	0.037
486.36	0.037
486.56	0.037
486.76	0.038
486.96	0.038
487.16	0.038
487.36	0.038
487.57	0.038
487.77	0.038
487.97	0.038
488.17	0.038
488.37	0.038
488.57	0.038
488.77	0.038
488.97	0.038
489.18	0.038
489.38	0.038
489.58	0.038
489.78	0.038
489.98	0.038
490.18	0.038
490.38	0.038
490.58	0.038
490.78	0.038
490.98	0.038
491.19	0.038
491.39	0.037
491.59	0.037
491.79	0.037
491.99	0.037
492.19	0.037
492.39	0.037
492.59	0.037
492.79	0.037
492.99	0.037
493.20	0.037
493.40	0.037
493.60	0.037
493.80	0.037
494.00	0.037
494.20	0.037
494.40	0.037
494.60	0.037
494.80	0.037
495.00	0.037
495.20	0.037
495.40	0.037
495.61	0.037
495.81	0.037
496.01	0.037
496.21	0.038
496.41	0.038
496.61	0.038
496.81	0.038
497.01	0.038
497.21	0.038
497.41	0.038
497.61	0.038
497.81	0.038
498.01	0.038
498.21	0.038
498.41	0.038
498.61	0.038
498.82	0.038
499.02	0.038
499.22	0.038
499.42	0.038
499.62	0.038
499.82	0.037
500.02	0.037
500.22	0.037
500.42	0.037
500.62	0.037
500.82	0.037
501.02	0.037
501.22	0.037
501.42	0.037
501.62	0.037
501.82	0.037
502.02	0.037
502.22	0.037
502.42	0.037
502.62	0.037
502.82	0.037
503.02	0.037
503.22	0.037
503.42	0.037
503.63	0.037
503.83	0.037
504.03	0.037
504.23	0.038
504.43	0.038
504.63	0.038
504.83	0.038
505.03	0.038
505.23	0.038
505.43	0.038
505.63	0.038
505.83	0.038
506.03	0.038
506.23	0.038
506.43	0.038
506.63	0.038
506.83	0.038
507.03	0.038
507.23	0.038
507.43	0.037
507.63	0.037
507.83	0.037
508.03	0.037
508.23	0.037
508.43	0.037
508.63	0.037
508.83	0.038
509.03	0.038
509.23	0.038
509.43	0.038
509.63	0.038
509.83	0.038
510.03	0.038
510.23	0.037
510.43	0.037
510.63	0.037
510.83	0.037
511.03	0.037
511.23	0.037
511.43	0.037
511.63	0.037
511.83	0.037
512.03	0.038
512.22	0.038
512.42	0.038
512.62	0.038
512.82	0.038
513.02	0.038
513.22	0.038
513.42	0.038
513.62	0.038
513.82	0.038
514.02	0.038
514.22	0.038
514.42	0.038
514.62	0.038
514.82	0.037
515.02	0.037
515.22	0.037
515.42	0.037
515.62	0.037
515.82	0.037
516.02	0.037
516.22	0.037
516.42	0.037
516.62	0.037
516.82	0.037
517.01	0.037
517.21	0.037
517.41	0.038
517.61	0.038
517.81	0.038
518.01	0.038
518.21	0.038
518.41	0.038
518.61	0.038
518.81	0.038
519.01	0.038
519.21	0.038
519.41	0.038
519.61	0.038
519.81	0.038
520.00	0.038
520.20	0.038
520.40	0.038
520.60	0.038
520.80	0.038
521.00	0.038
521.20	0.037
521.40	0.037
521.60	0.037
521.80	0.037
522.00	0.037
522.20	0.037
522.39	0.037
522.59	0.037
522.79	0.037
522.99	0.037
523.19	0.037
523.39	0.037
523.59	0.037
523.79	0.037
523.99	0.037
524.19	0.037
524.38	0.037
524.58	0.037
524.78	0.037
524.98	0.037
525.18	0.037
525.38	0.037
525.58	0.037
525.78	0.037
525.98	0.037
526.18	0.037
526.37	0.037
526.57	0.037
526.77	0.037
526.97	0.037
527.17	0.037
527.37	0.037
527.57	0.037
527.77	0.037
527.96	0.037
528.16	0.037
528.36	0.037
528.56	0.037
528.76	0.037
528.96	0.037
529.16	0.037
529.36	0.037
529.55	0.037
529.75	0.037
529.95	0.037
530.15	0.037
530.35	0.037
530.55	0.037
530.75	0.037
530.94	0.037
531.14	0.037
531.34	0.037
531.54	0.037
531.74	0.037
531.94	0.037
532.13	0.037
532.33	0.037
532.53	0.037
532.73	0.036
532.93	0.036
533.13	0.037
533.33	0.037
533.52	0.037
533.72	0.037
533.92	0.037
534.12	0.037
534.32	0.037
534.52	0.037
534.71	0.037
534.91	0.037
535.11	0.037
535.31	0.037
535.51	0.037
535.71	0.037
535.90	0.037
536.10	0.037
536.30	0.037
536.50	0.037
536.70	0.037
536.89	0.037
537.09	0.037
537.29	0.037
537.49	0.037
537.69	0.037
537.89	0.037
538.08	0.036
538.28	0.036
538.48	0.036
538.68	0.036
538.88	0.036
539.07	0.036
539.27	0.036
539.47	0.036
539.67	0.036
539.87	0.036
540.06	0.036
540.26	0.037
540.46	0.037
540.66	0.037
540.86	0.037
541.05	0.037
541.25	0.037
541.45	0.037
541.65	0.037
541.84	0.037
542.04	0.037
542.24	0.037
542.44	0.037
542.64	0.037
542.83	0.037
543.03	0.037
543.23	0.036
543.43	0.036
543.62	0.036
543.82	0.036
544.02	0.036
544.22	0.036
544.42	0.036
544.61	0.036
544.81	0.036
545.01	0.036
545.21	0.036
545.40	0.036
545.60	0.036
545.80	0.036
546.00	0.037
546.19	0.036
546.39	0.037
546.59	0.037
546.79	0.037
546.98	0.037
547.18	0.037
547.38	0.037
547.58	0.036
547.77	0.037
547.97	0.036
548.17	0.037
548.37	0.037
548.56	0.037
548.76	0.036
548.96	0.037
549.16	0.037
549.35	0.037
549.55	0.037
549.75	0.037
549.95	0.037
550.14	0.037
550.34	0.036
550.54	0.036
550.73	0.036
550.93	0.036
551.13	0.036
551.33	0.036
551.52	0.036
551.72	0.036
551.92	0.036
552.12	0.036
552.31	0.036
552.51	0.036
552.71	0.036
552.90	0.036
553.10	0.036
553.30	0.036
553.50	0.036
553.69	0.036
553.89	0.036
554.09	0.037
554.28	0.037
554.48	0.037
554.68	0.037
554.87	0.037
555.07	0.037
555.27	0.037
555.47	0.037
555.66	0.037
555.86	0.037
556.06	0.037
556.25	0.037
556.45	0.037
556.65	0.037
556.84	0.037
557.04	0.037
557.24	0.037
557.43	0.037
557.63	0.037
557.83	0.037
558.02	0.037
558.22	0.037
558.42	0.036
558.61	0.036
558.81	0.036
559.01	0.036
559.21	0.036
559.40	0.036
559.60	0.035
559.80	0.035
559.99	0.036
560.19	0.035
560.39	0.035
560.58	0.036
560.78	0.036
560.97	0.036
561.17	0.036
561.37	0.036
561.56	0.036
561.76	0.036
561.96	0.036
562.15	0.036
562.35	0.036
562.55	0.036
562.74	0.036
562.94	0.036
563.14	0.036
563.33	0.036
563.53	0.036
563.73	0.036
563.92	0.036
564.12	0.036
564.31	0.036
564.51	0.036
564.71	0.036
564.90	0.036
565.10	0.036
565.30	0.036
565.49	0.036
565.69	0.036
565.89	0.036
566.08	0.036
566.28	0.036
566.47	0.036
566.67	0.035
566.87	0.035
567.06	0.035
567.26	0.035
567.46	0.035
567.65	0.035
567.85	0.035
568.04	0.034
568.24	0.034
568.44	0.034
568.63	0.034
568.83	0.034
569.02	0.034
569.22	0.034
569.42	0.034
569.61	0.034
569.81	0.034
570.00	0.034
570.20	0.034
570.40	0.034
570.59	0.034
570.79	0.034
570.98	0.034
571.18	0.034
571.38	0.034
571.57	0.034
571.77	0.033
571.96	0.034
572.16	0.034
572.35	0.034
572.55	0.034
572.75	0.035
572.94	0.035
573.14	0.035
573.33	0.035
573.53	0.035
573.73	0.035
573.92	0.035
574.12	0.036
574.31	0.036
574.51	0.035
574.70	0.034
574.90	0.033
575.09	0.031
575.29	0.028
575.49	0.026
575.68	0.024
575.88	0.021
576.07	0.019
576.27	0.016
576.46	0.014
576.66	0.012
576.86	0.010
577.05	0.008
577.25	0.007
577.44	0.007
577.64	0.006
577.83	0.005
578.03	0.005
578.22	0.004
578.42	0.003
578.61	0.002
578.81	0.002
579.00	0.001
579.20	0.001
579.40	0.001
579.59	0.000
579.79	-0.000
579.98	-0.000
580.18	-0.000
580.37	-0.000
580.57	-0.000
580.76	-0.000
580.96	-0.000
581.15	-0.000
581.35	-0.000
581.54	-0.000
581.74	-0.000
581.93	-0.000
582.13	-0.000
582.32	-0.000
582.52	-0.000
582.71	-0.000
582.91	0.000
583.10	0.001
583.30	0.002
583.49	0.004
583.69	0.006
583.88	0.008
584.08	0.010
584.27	0.013
584.47	0.015
584.66	0.017
584.86	0.019
585.05	0.020
585.25	0.021
585.44	0.021
585.64	0.020
585.83	0.020
586.03	0.020
586.22	0.020
586.42	0.022
586.61	0.023
586.81	0.025
587.00	0.026
587.20	0.027
587.39	0.029
587.59	0.031
587.78	0.033
587.98	0.035
588.17	0.036
588.37	0.037
588.56	0.037
588.76	0.037
588.95	0.036
589.15	0.036
589.34	0.036
589.54	0.036
589.73	0.035
589.92	0.035
590.12	0.035
590.31	0.034
590.51	0.034
590.70	0.034
590.90	0.034
591.09	0.033
591.29	0.033
591.48	0.033
591.68	0.033
591.87	0.033
592.06	0.034
592.26	0.034
592.45	0.034
592.65	0.034
592.84	0.034
593.04	0.034
593.23	0.034
593.43	0.034
593.62	0.035
593.81	0.035
594.01	0.035
594.20	0.035
594.40	0.035
594.59	0.036
594.79	0.036
594.98	0.036
595.17	0.036
595.37	0.036
595.56	0.035
595.76	0.035
595.95	0.035
596.14	0.034
596.34	0.034
596.53	0.034
596.73	0.033
596.92	0.033
597.12	0.033
597.31	0.032
597.50	0.032
597.70	0.032
597.89	0.032
598.09	0.032
598.28	0.032
598.47	0.032
598.67	0.033
598.86	0.033
599.06	0.033
599.25	0.033
599.44	0.034
599.64	0.034
599.83	0.034
600.03	0.035
600.22	0.035
600.41	0.035
600.61	0.035
600.80	0.035
601.00	0.035
601.19	0.036
601.38	0.036
601.58	0.036
601.77	0.036
601.96	0.036
602.16	0.035
602.35	0.035
602.55	0.035
602.74	0.035
602.93	0.035
603.13	0.034
603.32	0.034
603.51	0.033
603.71	0.033
603.90	0.033
604.09	0.033
604.29	0.032
604.48	0.032
604.68	0.032
604.87	0.033
605.06	0.033
605.26	0.033
605.45	0.033
605.64	0.033
605.84	0.033
606.03	0.033
606.22	0.033
606.42	0.034
606.61	0.034
606.80	0.034
607.00	0.034
607.19	0.034
607.38	0.034
607.58	0.035
607.77	0.035
607.96	0.035
608.16	0.035
608.35	0.035
608.54	0.036
608.74	0.036
608.93	0.036
609.12	0.036
609.32	0.036
609.51	0.036
609.70	0.036
609.90	0.036
610.09	0.036
610.28	0.035
610.48	0.035
610.67	0.035
610.86	0.035
611.06	0.035
611.25	0.034
611.44	0.034
611.64	0.034
611.83	0.034
612.02	0.034
612.21	0.034
612.41	0.034
612.60	0.034
612.79	0.034
612.99	0.034
613.18	0.034
613.37	0.034
613.57	0.034
613.76	0.034
613.95	0.034
614.14	0.034
614.34	0.035
614.53	0.035
614.72	0.035
614.92	0.035
615.11	0.035
615.30	0.035
615.49	0.035
615.69	0.035
615.88	0.035
616.07	0.035
616.26	0.036
616.46	0.036
616.65	0.035
616.84	0.036
617.04	0.036
617.23	0.036
617.42	0.036
617.61	0.036
617.81	0.036
618.00	0.036
618.19	0.036
618.38	0.036
618.58	0.036
618.77	0.036
618.96	0.035
619.15	0.035
619.35	0.035
619.54	0.035
619.73	0.035
619.92	0.035
620.12	0.035
620.31	0.035
620.50	0.035
620.69	0.035
620.89	0.035
621.08	0.035
621.27	0.035
621.46	0.035
621.66	0.035
621.85	0.035
622.04	0.035
622.23	0.035
622.43	0.034
622.62	0.034
622.81	0.034
623.00	0.034
623.19	0.034
623.39	0.035
623.58	0.035
623.77	0.035
623.96	0.034
624.16	0.035
624.35	0.035
624.54	0.035
624.73	0.035
624.92	0.035
625.12	0.035
625.31	0.035
625.50	0.035
625.69	0.035
625.88	0.035
626.08	0.035
626.27	0.035
626.46	0.035
626.65	0.036
626.84	0.036
627.04	0.036
627.23	0.036
627.42	0.036
627.61	0.035
627.80	0.036
628.00	0.036
628.19	0.036
628.38	0.036
628.57	0.036
628.76	0.036
628.96	0.036
629.15	0.036
629.34	0.036
629.53	0.036
629.72	0.036
629.91	0.036
630.11	0.036
630.30	0.036
630.49	0.036
630.68	0.036
630.87	0.036
631.06	0.036
631.26	0.036
631.45	0.036
631.64	0.036
631.83	0.036
632.02	0.036
632.21	0.036
632.41	0.036
632.60	0.036
632.79	0.036
632.98	0.036
633.17	0.036
633.36	0.036
633.55	0.036
633.75	0.036
633.94	0.036
634.13	0.036
634.32	0.036
634.51	0.036
634.70	0.036
634.89	0.035
635.09	0.036
635.28	0.036
635.47	0.036
635.66	0.036
635.85	0.036
636.04	0.036
636.23	0.036
636.43	0.036
636.62	0.036
636.81	0.036
637.00	0.036
637.19	0.036
637.38	0.036
637.57	0.036
637.76	0.036
637.95	0.036
638.15	0.036
638.34	0.037
638.53	0.037
638.72	0.037
638.91	0.037
639.10	0.037
639.29	0.037
639.48	0.037
639.67	0.037
639.87	0.037
640.06	0.037
640.25	0.036
640.44	0.036
640.63	0.036
640.82	0.036
641.01	0.036
641.20	0.036
641.39	0.036
641.58	0.036
641.78	0.036
641.97	0.036
642.16	0.036
642.35	0.036
642.54	0.036
642.73	0.036
642.92	0.037
643.11	0.037
643.30	0.037
643.49	0.036
643.68	0.036
643.87	0.036
644.06	0.037
644.25	0.037
644.45	0.037
644.64	0.037
644.83	0.037
645.02	0.036
645.21	0.036
645.40	0.036
645.59	0.036
645.78	0.036
645.97	0.036
646.16	0.036
646.35	0.035
646.54	0.035
646.73	0.035
646.92	0.035
647.11	0.035
647.30	0.035
647.49	0.035
647.68	0.035
647.88	0.035
648.07	0.034
648.26	0.034
648.45	0.034
648.64	0.034
648.83	0.035
649.02	0.035
649.21	0.035
649.40	0.035
649.59	0.035
649.78	0.035
649.97	0.035
650.16	0.036
650.35	0.036
650.54	0.036
650.73	0.036
650.92	0.036
651.11	0.036
651.30	0.036
651.49	0.036
651.68	0.036
651.87	0.036
652.06	0.036
652.25	0.036
652.44	0.036
652.63	0.034
652.82	0.033
653.01	0.032
653.20	0.031
653.39	0.030
653.58	0.030
653.77	0.030
653.96	0.029
654.15	0.029
654.34	0.029
654.53	0.030
654.72	0.030
654.91	0.031
655.10	0.031
655.29	0.032
655.48	0.032
655.67	0.032
655.86	0.033
656.05	0.033
656.24	0.033
656.43	0.033
656.62	0.033
656.81	0.034
657.00	0.035
657.19	0.036
657.38	0.037
657.57	0.037
657.76	0.038
657.95	0.039
658.14	0.039
658.33	0.040
658.51	0.040
658.70	0.041
658.89	0.040
659.08	0.039
659.27	0.038
659.46	0.038
659.65	0.037
659.84	0.037
660.03	0.037
660.22	0.037
660.41	0.036
660.60	0.036
660.79	0.036
660.98	0.036
661.17	0.036
661.36	0.036
661.55	0.036
661.74	0.036
661.92	0.036
662.11	0.036
662.30	0.036
662.49	0.036
662.68	0.035
662.87	0.035
663.06	0.036
663.25	0.036
663.44	0.036
663.63	0.036
663.82	0.036
664.01	0.036
664.20	0.036
664.38	0.036
664.57	0.036
664.76	0.036
664.95	0.036
665.14	0.036
665.33	0.036
665.52	0.036
665.71	0.036
665.90	0.036
666.09	0.036
666.28	0.036
666.46	0.036
666.65	0.036
666.84	0.036
667.03	0.036
667.22	0.036
667.41	0.036
667.60	0.036
667.79	0.036
667.98	0.036
668.16	0.036
668.35	0.035
668.54	0.035
668.73	0.035
668.92	0.035
669.11	0.035
669.30	0.035
669.49	0.035
669.67	0.035
669.86	0.035
670.05	0.034
670.24	0.034
670.43	0.034
670.62	0.034
670.81	0.034
671.00	0.034
671.18	0.034
671.37	0.034
671.56	0.034
671.75	0.034
671.94	0.034
672.13	0.035
672.32	0.035
672.50	0.035
672.69	0.035
672.88	0.035
673.07	0.035
673.26	0.035
673.45	0.035
673.63	0.035
673.82	0.035
674.01	0.035
674.20	0.036
674.39	0.035
674.58	0.036
674.76	0.036
674.95	0.035
675.14	0.035
675.33	0.035
675.52	0.035
675.71	0.035
675.89	0.035
676.08	0.035
676.27	0.035
676.46	0.035
676.65	0.035
676.84	0.035
677.02	0.035
677.21	0.035
677.40	0.035
677.59	0.035
677.78	0.036
677.96	0.036
678.15	0.035
678.34	0.035
678.53	0.035
678.72	0.035
678.90	0.035
679.09	0.035
679.28	0.035
679.47	0.035
679.66	0.035
679.84	0.035
680.03	0.035
680.22	0.035
680.41	0.035
680.60	0.035
680.78	0.035
680.97	0.035
681.16	0.035
681.35	0.035
681.53	0.035
681.72	0.035
681.91	0.034
682.10	0.034
682.29	0.034
682.47	0.034
682.66	0.034
682.85	0.034
683.04	0.034
683.22	0.034
683.41	0.034
683.60	0.034
683.79	0.034
683.97	0.034
684.16	0.034
684.35	0.034
684.54	0.034
684.72	0.034
684.91	0.035
685.10	0.035
685.29	0.035
685.47	0.035
685.66	0.035
685.85	0.035
686.04	0.035
686.22	0.035
686.41	0.035
686.60	0.035
686.79	0.035
686.97	0.035
687.16	0.035
687.35	0.035
687.54	0.035
687.72	0.035
687.91	0.035
688.10	0.035
688.29	0.035
688.47	0.035
688.66	0.035
688.85	0.035
689.03	0.035
689.22	0.034
689.41	0.034
689.60	0.034
689.78	0.034
689.97	0.034
690.16	0.034
690.34	0.034
690.53	0.034
690.72	0.034
690.91	0.034
691.09	0.034
691.28	0.035
691.47	0.035
691.65	0.034
691.84	0.035
692.03	0.035
692.21	0.035
692.40	0.035
692.59	0.035
692.77	0.035
692.96	0.035
693.15	0.035
693.34	0.035
693.52	0.035
693.71	0.035
693.90	0.035
694.08	0.035
694.27	0.035
694.46	0.035
694.64	0.035
694.83	0.035
695.02	0.035
695.20	0.035
695.39	0.035
695.58	0.034
695.76	0.034
695.95	0.034
696.14	0.034
696.32	0.035
696.51	0.034
696.70	0.034
696.88	0.034
697.07	0.034
697.26	0.034
697.44	0.034
697.63	0.035
697.81	0.035
698.00	0.035
698.19	0.035
698.37	0.035
698.56	0.035
698.75	0.036
698.93	0.036
699.12	0.036
699.31	0.036
699.49	0.036
699.68	0.036
699.87	0.035
700.05	0.035
700.24	0.035
700.42	0.035
700.61	0.035
700.80	0.035
700.98	0.035
701.17	0.035
701.36	0.035
701.54	0.035
701.73	0.035
701.91	0.035
702.10	0.035
702.29	0.035
702.47	0.035
702.66	0.035
702.84	0.035
703.03	0.035
703.22	0.035
703.40	0.035
703.59	0.035
703.77	0.035
703.96	0.035
704.15	0.035
704.33	0.035
704.52	0.035
704.70	0.035
704.89	0.035
705.08	0.035
705.26	0.035
705.45	0.035
705.63	0.034
705.82	0.034
706.00	0.034
706.19	0.034
706.38	0.034
706.56	0.034
706.75	0.034
706.93	0.034
707.12	0.034
707.30	0.034
707.49	0.034
707.68	0.034
707.86	0.034
708.05	0.034
708.23	0.034
708.42	0.034
708.60	0.034
708.79	0.034
708.98	0.034
709.16	0.034
709.35	0.035
709.53	0.035
709.72	0.035
709.90	0.035
710.09	0.035
710.27	0.035
710.46	0.035
710.64	0.035
710.83	0.035
711.02	0.035
711.20	0.035
711.39	0.034
711.57	0.035
711.76	0.034
711.94	0.034
712.13	0.034
712.31	0.034
712.50	0.034
712.68	0.034
712.87	0.034
713.05	0.034
713.24	0.034
713.42	0.034
713.61	0.034
713.79	0.034
713.98	0.035
714.16	0.035
714.35	0.035
714.54	0.035
714.72	0.034
714.91	0.035
715.09	0.035
715.28	0.035
715.46	0.035
715.65	0.034
715.83	0.034
716.02	0.034
716.20	0.034
716.39	0.034
716.57	0.034
716.76	0.034
716.94	0.034
717.12	0.034
717.31	0.034
717.49	0.033
717.68	0.033
717.86	0.033
718.05	0.033
718.23	0.033
718.42	0.033
718.60	0.033
718.79	0.033
718.97	0.033
719.16	0.033
719.34	0.033
719.53	0.033
719.71	0.033
719.90	0.033
720.08	0.034
720.27	0.034
720.45	0.034
720.63	0.034
720.82	0.034
721.00	0.034
721.19	0.034
721.37	0.034
721.56	0.034
721.74	0.034
721.93	0.034
722.11	0.034
722.30	0.034
722.48	0.034
722.66	0.034
722.85	0.034
723.03	0.034
723.22	0.033
723.40	0.033
723.59	0.033
723.77	0.033
723.95	0.033
724.14	0.033
724.32	0.033
724.51	0.033
724.69	0.033
724.88	0.033
725.06	0.033
725.24	0.033
725.43	0.033
725.61	0.033
725.80	0.033
725.98	0.033
726.16	0.032
726.35	0.032
726.53	0.032
726.72	0.032
726.90	0.032
727.09	0.032
727.27	0.032
727.45	0.032
727.64	0.032
727.82	0.032
728.01	0.032
728.19	0.032
728.37	0.032
728.56	0.032
728.74	0.032
728.92	0.032
729.11	0.033
729.29	0.033
729.48	0.033
729.66	0.032
729.84	0.032
730.03	0.032
730.21	0.032
730.40	0.032
730.58	0.032
730.76	0.031
730.95	0.031
731.13	0.031
731.31	0.031
731.50	0.031
731.68	0.032
731.86	0.031
732.05	0.031
732.23	0.031
732.42	0.031
732.60	0.031
732.78	0.031
732.97	0.031
733.15	0.031
733.33	0.031
733.52	0.031
733.70	0.030
733.88	0.030
734.07	0.030
734.25	0.030
734.43	0.030
734.62	0.030
734.80	0.030
734.98	0.030
735.17	0.030
735.35	0.030
735.53	0.030
735.72	0.030
735.90	0.030
736.08	0.030
736.27	0.030
736.45	0.029
736.63	0.029
736.82	0.029
737.00	0.029
737.18	0.029
737.37	0.029
737.55	0.029
737.73	0.029
737.92	0.028
738.10	0.027
738.28	0.028
738.46	0.028
738.65	0.028
738.83	0.028
739.01	0.028
739.20	0.028
739.38	0.028
739.56	0.028
739.75	0.028
739.93	0.028
740.11	0.029
740.29	0.029
740.48	0.029
740.66	0.029
740.84	0.029
741.03	0.029
741.21	0.029
741.39	0.030
741.57	0.030
741.76	0.029
741.94	0.029
742.12	0.029
742.31	0.029
742.49	0.029
742.67	0.029
742.85	0.028
743.04	0.028
743.22	0.028
743.40	0.028
743.58	0.028
743.77	0.029
743.95	0.029
744.13	0.029
744.31	0.029
744.50	0.029
744.68	0.029
744.86	0.030
745.04	0.030
745.23	0.029
745.41	0.029
745.59	0.029
745.77	0.029
745.96	0.028
746.14	0.029
746.32	0.028
746.50	0.028
746.69	0.028
746.87	0.028
747.05	0.028
747.23	0.028
747.42	0.028
747.60	0.028
747.78	0.029
747.96	0.029
748.14	0.029
748.33	0.030
748.51	0.030
748.69	0.030
748.87	0.030
749.06	0.030
749.24	0.031
749.42	0.030
749.60	0.030
749.78	0.030
749.97	0.030
750.15	0.030
750.33	0.030
750.51	0.030
750.69	0.030
750.88	0.029
751.06	0.029
751.24	0.029
751.42	0.029
751.60	0.029
751.79	0.030
751.97	0.030
752.15	0.029
752.33	0.029
752.51	0.029
752.69	0.029
752.88	0.029
753.06	0.030
753.24	0.029
753.42	0.029
753.60	0.029
753.78	0.028
753.97	0.029
754.15	0.029
754.33	0.029
754.51	0.028
754.69	0.028
754.87	0.028
755.06	0.028
755.24	0.028
755.42	0.028
755.60	0.027
755.78	0.028
755.96	0.028
756.15	0.028
756.33	0.028
756.51	0.028
756.69	0.028
756.87	0.029
757.05	0.029
757.23	0.029
757.42	0.029
757.60	0.029
757.78	0.029
757.96	0.029
758.14	0.029
758.32	0.029
758.50	0.028
758.69	0.029
758.87	0.029
759.05	0.030
759.23	0.030
759.41	0.030
759.59	0.030
759.77	0.031
759.95	0.032
760.13	0.032
760.32	0.032
760.50	0.033
760.68	0.032
760.86	0.032
761.04	0.032
761.22	0.032
761.40	0.031
761.58	0.031
761.76	0.031
761.95	0.030
762.13	0.031
762.31	0.031
762.49	0.031
762.67	0.031
762.85	0.031
763.03	0.031
763.21	0.031
763.39	0.031
763.57	0.031
763.75	0.031
763.94	0.031
764.12	0.030
764.30	0.031
764.48	0.031
764.66	0.030
764.84	0.030
765.02	0.030
765.20	0.030
765.38	0.030
765.56	0.030
765.74	0.030
765.92	0.030
766.10	0.030
766.28	0.030
766.46	0.030
766.65	0.030
766.83	0.030
767.01	0.030
767.19	0.030
767.37	0.030
767.55	0.031
767.73	0.031
767.91	0.031
768.09	0.031
768.27	0.031
768.45	0.031
768.63	0.031
768.81	0.031
768.99	0.031
769.17	0.031
769.35	0.031
769.53	0.031
769.71	0.031
769.89	0.031
770.07	0.032
770.25	0.032
770.43	0.032
770.61	0.032
770.79	0.033
770.97	0.033
771.15	0.032
771.33	0.033
771.51	0.033
771.69	0.032
771.87	0.032
772.05	0.032
772.24	0.032
772.42	0.032
772.60	0.032
772.78	0.032
772.96	0.032
773.14	0.032
773.32	0.032
773.49	0.032
773.67	0.032
773.85	0.032
774.03	0.033
774.21	0.032
774.39	0.032
774.57	0.032
774.75	0.031
774.93	0.032
775.11	0.032
775.29	0.033
775.47	0.032
775.65	0.032
775.83	0.031
776.01	0.031
776.19	0.031
776.37	0.031
776.55	0.031
776.73	0.032
776.91	0.032
777.09	0.031
777.27	0.031
777.45	0.031
777.63	0.032
777.81	0.032
777.99	0.032
778.17	0.032
778.35	0.033
778.53	0.033
778.71	0.033
778.89	0.032
779.07	0.032
779.24	0.032
779.42	0.032
779.60	0.032
779.78	0.031
779.96	0.031
780.14	0.031
780.32	0.030
780.50	0.030
780.68	0.030
780.86	0.030
781.04	0.030
781.22	0.030
781.40	0.031
781.58	0.030
781.75	0.031
781.93	0.031
782.11	0.032
782.29	0.033
782.47	0.033
782.65	0.033
782.83	0.033
783.01	0.033
783.19	0.033
783.37	0.033
783.55	0.034
783.72	0.034
783.90	0.034
784.08	0.034
784.26	0.034
784.44	0.033
784.62	0.033
784.80	0.033
784.98	0.034
785.16	0.034
785.33	0.034
785.51	0.034
785.69	0.034
785.87	0.034
786.05	0.033
786.23	0.033
786.41	0.033
786.59	0.033
786.77	0.033
786.94	0.033
787.12	0.032
787.30	0.032
787.48	0.032
787.66	0.032
787.84	0.031
788.02	0.032
788.19	0.032
788.37	0.032
788.55	0.032
788.73	0.032
788.91	0.032
789.09	0.032
789.27	0.033
789.44	0.033
789.62	0.033
789.80	0.033
789.98	0.033
790.16	0.032
790.34	0.032
790.51	0.032
790.69	0.032
790.87	0.032
791.05	0.032
791.23	0.032
791.41	0.032
791.58	0.032
791.76	0.032
791.94	0.032
792.12	0.032
792.30	0.032
792.48	0.033
792.65	0.033
792.83	0.032
793.01	0.033
793.19	0.032
793.37	0.033
793.54	0.033
793.72	0.033
793.90	0.033
794.08	0.033
794.26	0.034
794.43	0.034
794.61	0.034
794.79	0.035
794.97	0.035
795.15	0.034
795.32	0.035
795.50	0.034
795.68	0.035
795.86	0.035
796.04	0.034
796.21	0.035
796.39	0.035
796.57	0.034
796.75	0.034
796.92	0.034
797.10	0.034
797.28	0.034
797.46	0.034
797.64	0.033
797.81	0.033
797.99	0.033
798.17	0.033
798.35	0.033
798.52	0.033
798.70	0.033
798.88	0.033
799.06	0.033
799.23	0.033
799.41	0.033
799.59	0.033
799.77	0.034
799.94	0.034
800.12	0.034
800.30	0.033
800.48	0.033
800.65	0.033
800.83	0.033
801.01	0.033
801.19	0.033
801.36	0.033
801.54	0.033
801.72	0.033
801.90	0.033
802.07	0.033
802.25	0.033
802.43	0.033
802.60	0.033
802.78	0.033
802.96	0.033
803.14	0.033
803.31	0.032
803.49	0.032
803.67	0.032
803.84	0.032
804.02	0.032
804.20	0.032
804.38	0.032
804.55	0.032
804.73	0.032
804.91	0.033
805.08	0.033
805.26	0.033
805.44	0.034
805.61	0.034
805.79	0.034
805.97	0.034
806.15	0.034
806.32	0.034
806.50	0.033
806.68	0.033
806.85	0.033
807.03	0.033
807.21	0.033
807.38	0.033
807.56	0.033
807.74	0.033
807.91	0.033
808.09	0.033
808.27	0.033
808.44	0.033
808.62	0.033
808.80	0.033
808.97	0.033
809.15	0.034
809.33	0.033
809.50	0.033
809.68	0.032
809.86	0.032
810.03	0.032
810.21	0.032
810.39	0.032
810.56	0.033
810.74	0.033
810.91	0.032
811.09	0.032
811.27	0.032
811.44	0.032
811.62	0.032
811.80	0.031
811.97	0.031
812.15	0.032
812.33	0.032
812.50	0.032
812.68	0.031
812.85	0.032
813.03	0.032
813.21	0.032
813.38	0.032
813.56	0.032
813.74	0.033
813.91	0.032
814.09	0.032
814.26	0.032
814.44	0.032
814.62	0.032
814.79	0.032
814.97	0.032
815.14	0.032
815.32	0.032
815.50	0.032
815.67	0.032
815.85	0.032
816.02	0.032
816.20	0.032
816.38	0.033
816.55	0.033
816.73	0.033
816.90	0.032
817.08	0.032
817.26	0.033
817.43	0.033
817.61	0.033
817.78	0.032
817.96	0.033
818.13	0.032
818.31	0.033
818.49	0.033
818.66	0.032
818.84	0.033
819.01	0.032
819.19	0.033
819.36	0.033
819.54	0.033
819.71	0.033
819.89	0.032
820.07	0.033
820.24	0.032
820.42	0.033
820.59	0.033
820.77	0.032
820.94	0.032
821.12	0.032
821.29	0.032
821.47	0.032
821.64	0.032
821.82	0.033
822.00	0.033
822.17	0.033
822.35	0.032
822.52	0.032
822.70	0.032
822.87	0.032
823.05	0.031
823.22	0.031
823.40	0.031
823.57	0.031
823.75	0.031
823.92	0.031
824.10	0.031
824.27	0.031
824.45	0.031
824.62	0.031
824.80	0.030
824.97	0.031
825.15	0.031
825.32	0.031
825.50	0.031
825.67	0.030
825.85	0.030
826.02	0.031
826.20	0.031
826.37	0.032
826.55	0.033
826.72	0.034
826.90	0.033
827.07	0.033
827.25	0.033
827.42	0.033
827.60	0.033
827.77	0.033
827.95	0.032
828.12	0.032
828.30	0.032
828.47	0.032
828.65	0.031
828.82	0.032
829.00	0.032
829.17	0.033
829.34	0.033
829.52	0.034
829.69	0.034
829.87	0.035
830.04	0.036
830.22	0.036
830.39	0.035
830.57	0.035
830.74	0.035
830.92	0.034
831.09	0.035
831.26	0.035
831.44	0.035
831.61	0.035
831.79	0.035
831.96	0.034
832.14	0.034
832.31	0.035
832.49	0.035
832.66	0.034
832.83	0.035
833.01	0.034
833.18	0.034
833.36	0.033
833.53	0.032
833.70	0.031
833.88	0.030
834.05	0.029
834.23	0.028
834.40	0.027
834.58	0.027
834.75	0.026
834.92	0.026
835.10	0.025
835.27	0.023
835.45	0.022
835.62	0.021
835.79	0.023
835.97	0.023
836.14	0.023
836.32	0.023
836.49	0.023
836.66	0.021
836.84	0.021
837.01	0.021
837.18	0.024
837.36	0.025
837.53	0.025
837.71	0.024
837.88	0.024
838.05	0.022
838.23	0.022
838.40	0.023
838.58	0.024
838.75	0.024
838.92	0.024
839.10	0.022
839.27	0.022
839.44	0.023
839.62	0.024
839.79	0.023
839.96	0.027
840.14	0.028
840.31	0.028
840.48	0.027
840.66	0.030
840.83	0.030
841.01	0.029
841.18	0.030
841.35	0.030
841.53	0.029
841.70	0.029
841.87	0.028
842.05	0.026
842.22	0.027
842.39	0.029
842.57	0.027
842.74	0.028
842.91	0.031
843.09	0.032
843.26	0.032
843.43	0.032
843.60	0.033
843.78	0.035
843.95	0.036
844.12	0.035
844.30	0.036
844.47	0.035
844.64	0.036
844.82	0.035
844.99	0.034
845.16	0.035
845.34	0.035
845.51	0.036
845.68	0.035
845.85	0.034
846.03	0.032
846.20	0.030
846.37	0.032
846.55	0.030
846.72	0.031
846.89	0.030
847.06	0.028
847.24	0.028
847.41	0.025
847.58	0.025
847.76	0.027
847.93	0.028
848.10	0.027
848.27	0.026
848.45	0.028
848.62	0.027
848.79	0.025
848.97	0.026
849.14	0.027
849.31	0.030
849.48	0.029
849.66	0.028
849.83	0.027
850.00	0.027
850.17	0.027
850.35	0.024
850.52	0.023
850.69	0.025
850.86	0.024
851.04	0.025
851.21	0.024
851.38	0.021
851.55	0.020
851.72	0.019
851.90	0.021
852.07	0.021
852.24	0.022
852.41	0.024
852.59	0.024
852.76	0.023
852.93	0.024
853.10	0.024
853.28	0.026
853.45	0.026
853.62	0.027
853.79	0.026
853.96	0.026
854.14	0.027
854.31	0.026
854.48	0.025
854.65	0.026
854.82	0.025
855.00	0.025
855.17	0.026
855.34	0.029
855.51	0.031
855.68	0.030
855.86	0.031
856.03	0.030
856.20	0.031
856.37	0.030
856.54	0.029
856.72	0.030
856.89	0.028
857.06	0.029
857.23	0.029
857.40	0.028
857.57	0.029
857.75	0.029
857.92	0.031
858.09	0.031
858.26	0.031
858.43	0.032
858.60	0.031
858.78	0.032
858.95	0.033
859.12	0.031
859.29	0.029
859.46	0.029
859.63	0.030
859.81	0.030
859.98	0.028
860.15	0.031
860.32	0.031
860.49	0.028
860.66	0.026
860.83	0.026
861.01	0.026
861.18	0.027
861.35	0.028
861.52	0.026
861.69	0.023
861.86	0.027
862.03	0.026
862.21	0.029
862.38	0.032
862.55	0.035
862.72	0.035
862.89	0.036
863.06	0.037
863.23	0.039
863.40	0.039
863.58	0.037
863.75	0.036
863.92	0.033
864.09	0.032
864.26	0.031
864.43	0.030
864.60	0.031
864.77	0.028
864.94	0.029
865.11	0.026
865.29	0.031
865.46	0.032
865.63	0.032
865.80	0.032
865.97	0.031
866.14	0.034
866.31	0.034
866.48	0.031
866.65	0.035
866.82	0.033
866.99	0.032
867.16	0.027
867.34	0.025
867.51	0.029
867.68	0.029
867.85	0.029
868.02	0.025
868.19	0.023
868.36	0.025
868.53	0.020
868.70	0.021
868.87	0.017
869.04	0.021
869.21	0.028
869.38	0.024
869.55	0.023
869.72	0.020
869.89	0.023
870.06	0.025
870.24	0.031
870.41	0.031
870.58	0.031
870.75	0.040
870.92	0.038
871.09	0.034
871.26	0.034
871.43	0.038
871.60	0.044
871.77	0.042
871.94	0.044
872.11	0.039
872.28	0.039
872.45	0.040
872.62	0.035
872.79	0.032
872.96	0.035
873.13	0.031
873.30	0.029
873.47	0.028
873.64	0.029
873.81	0.026
873.98	0.026
874.15	0.033
874.32	0.030
874.49	0.036
874.66	0.035
874.83	0.035
875.00	0.038
875.17	0.041
875.34	0.036
875.51	0.037
875.68	0.043
875.85	0.044
876.02	0.037
876.19	0.040
876.36	0.039
876.53	0.046
876.70	0.046
876.87	0.048
877.04	0.041
877.21	0.050
877.38	0.051
877.55	0.050
877.72	0.048
877.89	0.048
878.06	0.035
878.23	0.029
878.39	0.019
878.56	0.019
878.73	0.015
878.90	0.019
879.07	0.013
879.24	0.011
879.41	0.011
879.58	0.014
879.75	0.016
879.92	0.025
880.09	0.032
880.26	0.039
880.43	0.036
880.60	0.039
880.77	0.041
880.94	0.040
881.11	0.043
881.27	0.042
881.44	0.035
881.61	0.035
881.78	0.032
881.95	0.030
882.12	0.026
882.29	0.028
882.46	0.023
882.63	0.030
882.80	0.033
882.97	0.033
883.14	0.028
883.30	0.027
883.47	0.028
883.64	0.025
883.81	0.028
883.98	0.029
884.15	0.025
884.32	0.036
884.49	0.025
884.66	0.018
884.82	0.020
884.99	0.021
885.16	0.027
885.33	0.021
885.50	0.025
885.67	0.026
885.84	0.032
886.01	0.036
886.17	0.027
886.34	0.035
886.51	0.045
886.68	0.047
886.85	0.056
887.02	0.067
887.19	0.072
887.36	0.069
887.52	0.066
887.69	0.068
887.86	0.066
888.03	0.068
888.20	0.069
888.37	0.060
888.54	0.047
888.70	0.037
888.87	0.033
889.04	0.028
889.21	0.023
889.38	0.031
889.55	0.025
889.71	0.134
889.88	-0.027
890.05	-0.109
890.22	0.107
890.39	0.031
>>>>>End Processed Spectral Data<<<<<
