SpectraSuite Data File
++++++++++++++++++++++++++++++++++++
Date: Mon Jun 15 05:32:15 PDT 2015
User: introlabs
Dark Spectrum Present: Yes
Reference Spectrum Present: Yes
Number of Sampled Component Spectra: 1
Spectrometers: USB4H08886
Integration Time (usec): 99009 (USB4H08886)
Spectra Averaged: 20 (USB4H08886)
Boxcar Smoothing: 5 (USB4H08886)
Correct for Electrical Dark: Yes (USB4H08886)
Strobe/Lamp Enabled: No (USB4H08886)
Correct for Detector Non-linearity: Yes (USB4H08886)
Correct for Stray Light: Yes (USB4H08886)
Number of Pixels in Processed Spectrum: 3648
>>>>>Begin Processed Spectral Data<<<<<
178.14	-0.000
178.36	-0.000
178.57	-0.000
178.79	0.437
179.01	1.151
179.22	0.413
179.44	0.334
179.65	0.844
179.87	1.155
180.08	1.907
180.30	1.463
180.52	-0.000
180.73	-0.000
180.95	-0.000
181.16	-0.173
181.38	-0.094
181.59	-0.092
181.81	-0.075
182.03	-0.038
182.24	-0.024
182.46	-0.021
182.67	-0.019
182.89	-0.016
183.10	-0.020
183.32	-0.024
183.54	-0.026
183.75	-0.021
183.97	-0.016
184.18	-0.019
184.40	-0.019
184.61	-0.025
184.83	-0.015
185.04	-0.014
185.26	-0.008
185.48	-0.005
185.69	0.002
185.91	-0.000
186.12	-0.006
186.34	-0.015
186.55	-0.011
186.77	-0.007
186.98	-0.002
187.20	-0.005
187.42	-0.004
187.63	-0.011
187.85	-0.015
188.06	-0.016
188.28	-0.017
188.49	-0.005
188.71	0.009
188.92	0.006
189.14	-0.002
189.36	-0.002
189.57	-0.005
189.79	-0.006
190.00	-0.002
190.22	-0.006
190.43	-0.010
190.65	-0.001
190.86	-0.015
191.08	-0.023
191.29	-0.022
191.51	-0.011
191.72	-0.010
191.94	-0.008
192.16	-0.005
192.37	-0.005
192.59	-0.006
192.80	-0.006
193.02	-0.010
193.23	-0.006
193.45	-0.002
193.66	0.003
193.88	-0.014
194.09	-0.022
194.31	-0.023
194.52	-0.023
194.74	-0.024
194.95	-0.016
195.17	-0.012
195.38	-0.009
195.60	-0.006
195.81	-0.013
196.03	-0.017
196.25	-0.008
196.46	0.000
196.68	-0.002
196.89	-0.000
197.11	-0.004
197.32	-0.011
197.54	-0.013
197.75	-0.022
197.97	-0.026
198.18	-0.022
198.40	-0.020
198.61	-0.025
198.83	-0.024
199.04	-0.029
199.26	-0.030
199.47	-0.030
199.69	-0.032
199.90	-0.031
200.12	-0.027
200.33	-0.027
200.55	-0.024
200.76	-0.032
200.98	-0.027
201.19	-0.024
201.41	-0.022
201.62	-0.021
201.84	-0.019
202.05	-0.011
202.27	-0.010
202.48	-0.012
202.70	-0.001
202.91	-0.003
203.13	-0.001
203.34	-0.002
203.56	-0.013
203.77	-0.010
203.99	-0.011
204.20	-0.014
204.42	-0.024
204.63	-0.028
204.85	-0.024
205.06	-0.034
205.28	-0.036
205.49	-0.039
205.71	-0.036
205.92	-0.030
206.14	-0.031
206.35	-0.032
206.56	-0.027
206.78	-0.020
206.99	-0.015
207.21	-0.021
207.42	-0.018
207.64	-0.012
207.85	-0.010
208.07	-0.012
208.28	-0.015
208.50	-0.013
208.71	-0.017
208.93	-0.019
209.14	-0.018
209.36	-0.020
209.57	-0.014
209.79	-0.015
210.00	-0.019
210.22	-0.012
210.43	-0.013
210.64	-0.017
210.86	-0.016
211.07	-0.013
211.29	-0.009
211.50	-0.009
211.72	-0.003
211.93	-0.008
212.15	-0.007
212.36	-0.004
212.58	-0.003
212.79	0.000
213.01	0.002
213.22	0.004
213.43	-0.002
213.65	-0.004
213.86	-0.008
214.08	-0.011
214.29	-0.008
214.51	-0.008
214.72	-0.010
214.94	-0.014
215.15	-0.017
215.36	-0.015
215.58	-0.016
215.79	-0.008
216.01	-0.008
216.22	-0.001
216.44	-0.008
216.65	-0.007
216.87	-0.003
217.08	0.000
217.29	-0.004
217.51	-0.002
217.72	-0.001
217.94	-0.006
218.15	-0.006
218.37	-0.004
218.58	-0.007
218.80	0.003
219.01	-0.001
219.22	-0.002
219.44	-0.002
219.65	0.004
219.87	0.003
220.08	-0.001
220.30	0.009
220.51	0.006
220.72	0.003
220.94	0.004
221.15	-0.001
221.37	0.002
221.58	-0.004
221.79	-0.002
222.01	-0.003
222.22	-0.004
222.44	-0.001
222.65	-0.005
222.87	-0.007
223.08	-0.007
223.29	-0.010
223.51	-0.010
223.72	-0.011
223.94	-0.012
224.15	-0.018
224.36	-0.021
224.58	-0.019
224.79	-0.017
225.01	-0.021
225.22	-0.020
225.44	-0.025
225.65	-0.026
225.86	-0.024
226.08	-0.027
226.29	-0.021
226.51	-0.018
226.72	-0.018
226.93	-0.020
227.15	-0.024
227.36	-0.024
227.58	-0.024
227.79	-0.020
228.00	-0.019
228.22	-0.018
228.43	-0.015
228.65	-0.019
228.86	-0.019
229.07	-0.016
229.29	-0.014
229.50	-0.009
229.72	-0.010
229.93	-0.010
230.14	-0.013
230.36	-0.010
230.57	-0.013
230.78	-0.012
231.00	-0.013
231.21	-0.013
231.43	-0.018
231.64	-0.020
231.85	-0.022
232.07	-0.020
232.28	-0.019
232.50	-0.018
232.71	-0.020
232.92	-0.021
233.14	-0.020
233.35	-0.021
233.56	-0.023
233.78	-0.022
233.99	-0.022
234.21	-0.024
234.42	-0.025
234.63	-0.024
234.85	-0.025
235.06	-0.025
235.27	-0.026
235.49	-0.026
235.70	-0.027
235.91	-0.026
236.13	-0.025
236.34	-0.024
236.56	-0.023
236.77	-0.024
236.98	-0.026
237.20	-0.026
237.41	-0.027
237.62	-0.027
237.84	-0.027
238.05	-0.027
238.26	-0.027
238.48	-0.026
238.69	-0.026
238.91	-0.027
239.12	-0.025
239.33	-0.025
239.55	-0.024
239.76	-0.022
239.97	-0.022
240.19	-0.021
240.40	-0.021
240.61	-0.020
240.83	-0.021
241.04	-0.022
241.25	-0.022
241.47	-0.022
241.68	-0.022
241.89	-0.022
242.11	-0.022
242.32	-0.023
242.53	-0.023
242.75	-0.024
242.96	-0.024
243.17	-0.024
243.39	-0.024
243.60	-0.023
243.81	-0.024
244.03	-0.024
244.24	-0.024
244.45	-0.024
244.67	-0.023
244.88	-0.024
245.09	-0.023
245.31	-0.023
245.52	-0.023
245.73	-0.023
245.95	-0.023
246.16	-0.023
246.37	-0.023
246.59	-0.023
246.80	-0.023
247.01	-0.023
247.23	-0.022
247.44	-0.022
247.65	-0.022
247.87	-0.022
248.08	-0.021
248.29	-0.021
248.51	-0.021
248.72	-0.021
248.93	-0.020
249.15	-0.021
249.36	-0.020
249.57	-0.020
249.78	-0.020
250.00	-0.019
250.21	-0.019
250.42	-0.020
250.64	-0.020
250.85	-0.020
251.06	-0.020
251.28	-0.020
251.49	-0.020
251.70	-0.020
251.92	-0.020
252.13	-0.020
252.34	-0.020
252.55	-0.020
252.77	-0.019
252.98	-0.019
253.19	-0.019
253.41	-0.019
253.62	-0.019
253.83	-0.019
254.05	-0.020
254.26	-0.019
254.47	-0.020
254.68	-0.020
254.90	-0.020
255.11	-0.020
255.32	-0.020
255.54	-0.020
255.75	-0.020
255.96	-0.020
256.17	-0.020
256.39	-0.020
256.60	-0.020
256.81	-0.020
257.03	-0.020
257.24	-0.020
257.45	-0.020
257.66	-0.020
257.88	-0.019
258.09	-0.019
258.30	-0.019
258.51	-0.019
258.73	-0.020
258.94	-0.019
259.15	-0.019
259.37	-0.020
259.58	-0.020
259.79	-0.019
260.00	-0.020
260.22	-0.020
260.43	-0.020
260.64	-0.020
260.85	-0.019
261.07	-0.019
261.28	-0.019
261.49	-0.019
261.71	-0.019
261.92	-0.019
262.13	-0.019
262.34	-0.019
262.56	-0.019
262.77	-0.019
262.98	-0.019
263.19	-0.019
263.41	-0.019
263.62	-0.019
263.83	-0.019
264.04	-0.019
264.26	-0.019
264.47	-0.019
264.68	-0.019
264.89	-0.019
265.11	-0.019
265.32	-0.019
265.53	-0.020
265.74	-0.020
265.96	-0.019
266.17	-0.019
266.38	-0.019
266.59	-0.019
266.81	-0.019
267.02	-0.018
267.23	-0.018
267.44	-0.019
267.65	-0.018
267.87	-0.018
268.08	-0.019
268.29	-0.019
268.50	-0.019
268.72	-0.019
268.93	-0.019
269.14	-0.019
269.35	-0.019
269.57	-0.019
269.78	-0.019
269.99	-0.019
270.20	-0.018
270.41	-0.019
270.63	-0.019
270.84	-0.019
271.05	-0.019
271.26	-0.018
271.48	-0.018
271.69	-0.018
271.90	-0.019
272.11	-0.018
272.32	-0.018
272.54	-0.019
272.75	-0.019
272.96	-0.019
273.17	-0.019
273.39	-0.019
273.60	-0.019
273.81	-0.019
274.02	-0.019
274.23	-0.019
274.45	-0.020
274.66	-0.020
274.87	-0.020
275.08	-0.019
275.29	-0.020
275.51	-0.019
275.72	-0.019
275.93	-0.019
276.14	-0.019
276.35	-0.019
276.57	-0.019
276.78	-0.019
276.99	-0.019
277.20	-0.019
277.41	-0.019
277.63	-0.018
277.84	-0.018
278.05	-0.018
278.26	-0.018
278.47	-0.018
278.69	-0.019
278.90	-0.018
279.11	-0.018
279.32	-0.018
279.53	-0.018
279.74	-0.018
279.96	-0.019
280.17	-0.019
280.38	-0.019
280.59	-0.019
280.80	-0.019
281.02	-0.019
281.23	-0.019
281.44	-0.019
281.65	-0.019
281.86	-0.019
282.07	-0.019
282.29	-0.019
282.50	-0.019
282.71	-0.019
282.92	-0.019
283.13	-0.019
283.35	-0.019
283.56	-0.019
283.77	-0.019
283.98	-0.019
284.19	-0.019
284.40	-0.019
284.62	-0.019
284.83	-0.018
285.04	-0.018
285.25	-0.018
285.46	-0.018
285.67	-0.018
285.88	-0.018
286.10	-0.017
286.31	-0.017
286.52	-0.017
286.73	-0.017
286.94	-0.017
287.15	-0.017
287.37	-0.017
287.58	-0.017
287.79	-0.017
288.00	-0.017
288.21	-0.017
288.42	-0.017
288.63	-0.016
288.85	-0.017
289.06	-0.017
289.27	-0.017
289.48	-0.017
289.69	-0.016
289.90	-0.016
290.11	-0.016
290.33	-0.016
290.54	-0.016
290.75	-0.016
290.96	-0.016
291.17	-0.016
291.38	-0.016
291.59	-0.016
291.81	-0.016
292.02	-0.016
292.23	-0.016
292.44	-0.016
292.65	-0.016
292.86	-0.016
293.07	-0.016
293.28	-0.016
293.50	-0.016
293.71	-0.016
293.92	-0.016
294.13	-0.016
294.34	-0.016
294.55	-0.016
294.76	-0.016
294.97	-0.016
295.19	-0.016
295.40	-0.016
295.61	-0.015
295.82	-0.015
296.03	-0.015
296.24	-0.015
296.45	-0.015
296.66	-0.015
296.87	-0.015
297.09	-0.015
297.30	-0.015
297.51	-0.015
297.72	-0.015
297.93	-0.015
298.14	-0.015
298.35	-0.015
298.56	-0.015
298.77	-0.015
298.99	-0.015
299.20	-0.015
299.41	-0.015
299.62	-0.015
299.83	-0.015
300.04	-0.015
300.25	-0.015
300.46	-0.015
300.67	-0.015
300.88	-0.015
301.10	-0.015
301.31	-0.015
301.52	-0.015
301.73	-0.015
301.94	-0.015
302.15	-0.015
302.36	-0.015
302.57	-0.015
302.78	-0.015
302.99	-0.015
303.20	-0.015
303.41	-0.015
303.63	-0.015
303.84	-0.015
304.05	-0.015
304.26	-0.015
304.47	-0.015
304.68	-0.015
304.89	-0.015
305.10	-0.015
305.31	-0.015
305.52	-0.015
305.73	-0.014
305.94	-0.014
306.15	-0.014
306.37	-0.014
306.58	-0.014
306.79	-0.014
307.00	-0.014
307.21	-0.014
307.42	-0.014
307.63	-0.014
307.84	-0.014
308.05	-0.015
308.26	-0.015
308.47	-0.015
308.68	-0.015
308.89	-0.014
309.10	-0.014
309.31	-0.014
309.52	-0.014
309.73	-0.014
309.95	-0.014
310.16	-0.014
310.37	-0.014
310.58	-0.014
310.79	-0.014
311.00	-0.014
311.21	-0.014
311.42	-0.015
311.63	-0.014
311.84	-0.014
312.05	-0.014
312.26	-0.014
312.47	-0.015
312.68	-0.015
312.89	-0.014
313.10	-0.014
313.31	-0.014
313.52	-0.014
313.73	-0.014
313.94	-0.014
314.15	-0.014
314.36	-0.014
314.57	-0.014
314.78	-0.014
314.99	-0.014
315.21	-0.014
315.42	-0.014
315.63	-0.014
315.84	-0.014
316.05	-0.014
316.26	-0.014
316.47	-0.014
316.68	-0.014
316.89	-0.014
317.10	-0.014
317.31	-0.014
317.52	-0.014
317.73	-0.014
317.94	-0.014
318.15	-0.014
318.36	-0.014
318.57	-0.014
318.78	-0.014
318.99	-0.014
319.20	-0.014
319.41	-0.014
319.62	-0.014
319.83	-0.014
320.04	-0.014
320.25	-0.014
320.46	-0.014
320.67	-0.014
320.88	-0.014
321.09	-0.014
321.30	-0.014
321.51	-0.014
321.72	-0.014
321.93	-0.014
322.14	-0.014
322.35	-0.014
322.56	-0.014
322.77	-0.014
322.98	-0.014
323.19	-0.014
323.40	-0.014
323.61	-0.014
323.82	-0.014
324.03	-0.014
324.24	-0.014
324.45	-0.014
324.66	-0.014
324.87	-0.014
325.08	-0.014
325.29	-0.014
325.50	-0.014
325.71	-0.014
325.92	-0.014
326.13	-0.014
326.34	-0.014
326.55	-0.014
326.76	-0.014
326.97	-0.014
327.18	-0.014
327.39	-0.014
327.60	-0.014
327.80	-0.014
328.01	-0.014
328.22	-0.014
328.43	-0.014
328.64	-0.014
328.85	-0.014
329.06	-0.014
329.27	-0.014
329.48	-0.014
329.69	-0.014
329.90	-0.014
330.11	-0.014
330.32	-0.014
330.53	-0.014
330.74	-0.014
330.95	-0.014
331.16	-0.014
331.37	-0.014
331.58	-0.014
331.79	-0.014
332.00	-0.014
332.21	-0.014
332.42	-0.014
332.63	-0.014
332.83	-0.014
333.04	-0.014
333.25	-0.014
333.46	-0.014
333.67	-0.014
333.88	-0.014
334.09	-0.014
334.30	-0.014
334.51	-0.014
334.72	-0.014
334.93	-0.014
335.14	-0.014
335.35	-0.014
335.56	-0.014
335.77	-0.014
335.98	-0.014
336.18	-0.014
336.39	-0.014
336.60	-0.014
336.81	-0.014
337.02	-0.014
337.23	-0.014
337.44	-0.014
337.65	-0.014
337.86	-0.014
338.07	-0.014
338.28	-0.014
338.49	-0.014
338.70	-0.014
338.91	-0.014
339.11	-0.014
339.32	-0.014
339.53	-0.014
339.74	-0.014
339.95	-0.014
340.16	-0.014
340.37	-0.014
340.58	-0.014
340.79	-0.014
341.00	-0.014
341.21	-0.014
341.41	-0.014
341.62	-0.014
341.83	-0.014
342.04	-0.014
342.25	-0.014
342.46	-0.014
342.67	-0.014
342.88	-0.014
343.09	-0.014
343.30	-0.014
343.50	-0.014
343.71	-0.014
343.92	-0.014
344.13	-0.014
344.34	-0.014
344.55	-0.014
344.76	-0.014
344.97	-0.014
345.18	-0.014
345.38	-0.014
345.59	-0.014
345.80	-0.014
346.01	-0.014
346.22	-0.014
346.43	-0.014
346.64	-0.014
346.85	-0.014
347.06	-0.014
347.26	-0.014
347.47	-0.014
347.68	-0.014
347.89	-0.014
348.10	-0.014
348.31	-0.014
348.52	-0.014
348.73	-0.014
348.93	-0.014
349.14	-0.013
349.35	-0.013
349.56	-0.013
349.77	-0.013
349.98	-0.013
350.19	-0.013
350.39	-0.013
350.60	-0.013
350.81	-0.012
351.02	-0.012
351.23	-0.012
351.44	-0.012
351.65	-0.012
351.86	-0.012
352.06	-0.012
352.27	-0.011
352.48	-0.011
352.69	-0.011
352.90	-0.011
353.11	-0.011
353.31	-0.011
353.52	-0.010
353.73	-0.010
353.94	-0.010
354.15	-0.010
354.36	-0.010
354.57	-0.010
354.77	-0.010
354.98	-0.010
355.19	-0.010
355.40	-0.010
355.61	-0.010
355.82	-0.010
356.02	-0.009
356.23	-0.009
356.44	-0.009
356.65	-0.009
356.86	-0.009
357.07	-0.008
357.27	-0.008
357.48	-0.008
357.69	-0.008
357.90	-0.008
358.11	-0.008
358.32	-0.008
358.52	-0.008
358.73	-0.008
358.94	-0.007
359.15	-0.007
359.36	-0.008
359.56	-0.008
359.77	-0.007
359.98	-0.007
360.19	-0.007
360.40	-0.007
360.61	-0.007
360.81	-0.007
361.02	-0.006
361.23	-0.006
361.44	-0.006
361.65	-0.006
361.85	-0.005
362.06	-0.005
362.27	-0.005
362.48	-0.005
362.69	-0.005
362.89	-0.005
363.10	-0.004
363.31	-0.004
363.52	-0.004
363.73	-0.004
363.93	-0.004
364.14	-0.004
364.35	-0.003
364.56	-0.003
364.77	-0.003
364.97	-0.002
365.18	-0.002
365.39	-0.002
365.60	-0.002
365.81	-0.001
366.01	-0.001
366.22	-0.001
366.43	-0.001
366.64	-0.001
366.84	-0.001
367.05	-0.000
367.26	-0.000
367.47	-0.000
367.68	-0.000
367.88	-0.000
368.09	-0.000
368.30	-0.000
368.51	-0.000
368.71	-0.000
368.92	-0.000
369.13	-0.000
369.34	-0.001
369.55	-0.001
369.75	-0.001
369.96	-0.001
370.17	-0.001
370.38	-0.001
370.58	-0.001
370.79	-0.002
371.00	-0.002
371.21	-0.002
371.41	-0.002
371.62	-0.003
371.83	-0.003
372.04	-0.003
372.24	-0.003
372.45	-0.003
372.66	-0.003
372.87	-0.003
373.07	-0.003
373.28	-0.003
373.49	-0.003
373.70	-0.003
373.90	-0.003
374.11	-0.003
374.32	-0.003
374.53	-0.003
374.73	-0.003
374.94	-0.003
375.15	-0.003
375.36	-0.003
375.56	-0.003
375.77	-0.003
375.98	-0.003
376.19	-0.002
376.39	-0.002
376.60	-0.002
376.81	-0.002
377.02	-0.002
377.22	-0.002
377.43	-0.001
377.64	-0.001
377.84	-0.001
378.05	-0.001
378.26	-0.001
378.47	-0.001
378.67	-0.000
378.88	-0.000
379.09	-0.000
379.30	-0.000
379.50	-0.000
379.71	-0.000
379.92	-0.000
380.12	-0.000
380.33	-0.000
380.54	-0.000
380.75	-0.000
380.95	-0.000
381.16	-0.001
381.37	-0.001
381.57	-0.001
381.78	-0.001
381.99	-0.001
382.20	-0.001
382.40	-0.002
382.61	-0.002
382.82	-0.002
383.02	-0.002
383.23	-0.003
383.44	-0.003
383.64	-0.003
383.85	-0.003
384.06	-0.003
384.27	-0.004
384.47	-0.004
384.68	-0.004
384.89	-0.004
385.09	-0.004
385.30	-0.004
385.51	-0.003
385.71	-0.004
385.92	-0.004
386.13	-0.003
386.33	-0.003
386.54	-0.003
386.75	-0.003
386.95	-0.003
387.16	-0.003
387.37	-0.003
387.58	-0.003
387.78	-0.003
387.99	-0.003
388.20	-0.002
388.40	-0.002
388.61	-0.002
388.82	-0.002
389.02	-0.002
389.23	-0.002
389.44	-0.002
389.64	-0.002
389.85	-0.002
390.06	-0.002
390.26	-0.002
390.47	-0.002
390.68	-0.001
390.88	-0.001
391.09	-0.001
391.30	-0.001
391.50	-0.001
391.71	-0.000
391.92	-0.000
392.12	-0.000
392.33	-0.000
392.53	0.000
392.74	0.000
392.95	0.000
393.15	0.000
393.36	0.000
393.57	0.000
393.77	0.000
393.98	0.000
394.19	-0.000
394.39	-0.000
394.60	-0.000
394.81	-0.000
395.01	-0.001
395.22	-0.001
395.43	-0.001
395.63	-0.001
395.84	-0.001
396.04	-0.001
396.25	-0.001
396.46	-0.001
396.66	-0.001
396.87	-0.001
397.08	-0.001
397.28	-0.000
397.49	-0.000
397.69	-0.000
397.90	-0.000
398.11	-0.000
398.31	0.000
398.52	0.000
398.73	0.000
398.93	0.000
399.14	0.000
399.34	0.000
399.55	0.000
399.76	0.000
399.96	0.000
400.17	-0.000
400.37	-0.000
400.58	-0.000
400.79	-0.000
400.99	-0.000
401.20	-0.000
401.41	-0.001
401.61	-0.001
401.82	-0.001
402.02	-0.002
402.23	-0.002
402.44	-0.002
402.64	-0.002
402.85	-0.003
403.05	-0.003
403.26	-0.003
403.47	-0.003
403.67	-0.003
403.88	-0.002
404.08	-0.002
404.29	-0.002
404.50	-0.002
404.70	-0.002
404.91	-0.001
405.11	-0.001
405.32	-0.001
405.52	-0.001
405.73	-0.001
405.94	-0.001
406.14	-0.001
406.35	-0.001
406.55	-0.001
406.76	-0.002
406.97	-0.002
407.17	-0.002
407.38	-0.002
407.58	-0.002
407.79	-0.002
407.99	-0.003
408.20	-0.003
408.41	-0.003
408.61	-0.003
408.82	-0.003
409.02	-0.003
409.23	-0.003
409.43	-0.003
409.64	-0.004
409.84	-0.004
410.05	-0.004
410.26	-0.004
410.46	-0.004
410.67	-0.004
410.87	-0.004
411.08	-0.003
411.28	-0.004
411.49	-0.004
411.69	-0.004
411.90	-0.004
412.11	-0.004
412.31	-0.004
412.52	-0.004
412.72	-0.003
412.93	-0.004
413.13	-0.004
413.34	-0.004
413.54	-0.004
413.75	-0.005
413.95	-0.004
414.16	-0.005
414.37	-0.005
414.57	-0.005
414.78	-0.005
414.98	-0.005
415.19	-0.006
415.39	-0.006
415.60	-0.006
415.80	-0.006
416.01	-0.007
416.21	-0.007
416.42	-0.008
416.62	-0.008
416.83	-0.009
417.03	-0.009
417.24	-0.010
417.44	-0.010
417.65	-0.010
417.86	-0.010
418.06	-0.010
418.27	-0.010
418.47	-0.010
418.68	-0.010
418.88	-0.009
419.09	-0.009
419.29	-0.008
419.50	-0.007
419.70	-0.007
419.91	-0.006
420.11	-0.005
420.32	-0.004
420.52	-0.003
420.73	-0.002
420.93	-0.002
421.14	-0.001
421.34	-0.001
421.55	-0.001
421.75	-0.000
421.96	-0.000
422.16	-0.000
422.37	-0.000
422.57	-0.000
422.78	-0.000
422.98	-0.000
423.19	-0.000
423.39	-0.000
423.60	-0.001
423.80	-0.001
424.01	-0.001
424.21	-0.002
424.42	-0.003
424.62	-0.003
424.83	-0.004
425.03	-0.005
425.23	-0.006
425.44	-0.007
425.64	-0.007
425.85	-0.007
426.05	-0.008
426.26	-0.009
426.46	-0.009
426.67	-0.009
426.87	-0.009
427.08	-0.010
427.28	-0.009
427.49	-0.008
427.69	-0.007
427.90	-0.006
428.10	-0.006
428.31	-0.005
428.51	-0.004
428.71	-0.003
428.92	-0.002
429.12	-0.001
429.33	-0.000
429.53	-0.000
429.74	-0.000
429.94	0.000
430.15	0.000
430.35	0.000
430.56	0.000
430.76	0.000
430.96	0.000
431.17	0.000
431.37	-0.000
431.58	-0.000
431.78	-0.000
431.99	-0.001
432.19	-0.001
432.40	-0.001
432.60	-0.002
432.80	-0.003
433.01	-0.003
433.21	-0.004
433.42	-0.005
433.62	-0.006
433.83	-0.007
434.03	-0.007
434.23	-0.007
434.44	-0.007
434.64	-0.007
434.85	-0.007
435.05	-0.007
435.26	-0.007
435.46	-0.007
435.66	-0.006
435.87	-0.005
436.07	-0.005
436.28	-0.005
436.48	-0.005
436.69	-0.005
436.89	-0.005
437.09	-0.004
437.30	-0.004
437.50	-0.004
437.71	-0.004
437.91	-0.005
438.11	-0.005
438.32	-0.005
438.52	-0.006
438.73	-0.006
438.93	-0.007
439.13	-0.008
439.34	-0.008
439.54	-0.008
439.75	-0.009
439.95	-0.009
440.15	-0.009
440.36	-0.009
440.56	-0.009
440.77	-0.010
440.97	-0.010
441.17	-0.009
441.38	-0.009
441.58	-0.009
441.79	-0.009
441.99	-0.009
442.19	-0.008
442.40	-0.008
442.60	-0.008
442.81	-0.007
443.01	-0.007
443.21	-0.007
443.42	-0.007
443.62	-0.006
443.82	-0.006
444.03	-0.006
444.23	-0.006
444.44	-0.007
444.64	-0.006
444.84	-0.006
445.05	-0.006
445.25	-0.006
445.45	-0.006
445.66	-0.006
445.86	-0.006
446.06	-0.006
446.27	-0.006
446.47	-0.007
446.68	-0.006
446.88	-0.007
447.08	-0.008
447.29	-0.008
447.49	-0.008
447.69	-0.009
447.90	-0.009
448.10	-0.009
448.30	-0.009
448.51	-0.010
448.71	-0.010
448.91	-0.011
449.12	-0.011
449.32	-0.011
449.52	-0.011
449.73	-0.011
449.93	-0.011
450.14	-0.012
450.34	-0.012
450.54	-0.012
450.75	-0.012
450.95	-0.012
451.15	-0.012
451.36	-0.012
451.56	-0.012
451.76	-0.012
451.97	-0.013
452.17	-0.013
452.37	-0.013
452.58	-0.013
452.78	-0.013
452.98	-0.013
453.19	-0.013
453.39	-0.012
453.59	-0.013
453.79	-0.012
454.00	-0.012
454.20	-0.012
454.40	-0.012
454.61	-0.012
454.81	-0.012
455.01	-0.012
455.22	-0.012
455.42	-0.012
455.62	-0.012
455.83	-0.012
456.03	-0.012
456.23	-0.012
456.44	-0.012
456.64	-0.012
456.84	-0.012
457.04	-0.012
457.25	-0.012
457.45	-0.012
457.65	-0.012
457.86	-0.012
458.06	-0.012
458.26	-0.012
458.47	-0.012
458.67	-0.012
458.87	-0.012
459.07	-0.012
459.28	-0.012
459.48	-0.012
459.68	-0.012
459.89	-0.012
460.09	-0.012
460.29	-0.012
460.49	-0.012
460.70	-0.012
460.90	-0.012
461.10	-0.012
461.31	-0.012
461.51	-0.012
461.71	-0.012
461.91	-0.012
462.12	-0.012
462.32	-0.012
462.52	-0.012
462.72	-0.012
462.93	-0.012
463.13	-0.012
463.33	-0.012
463.53	-0.012
463.74	-0.012
463.94	-0.012
464.14	-0.012
464.35	-0.012
464.55	-0.012
464.75	-0.012
464.95	-0.012
465.16	-0.012
465.36	-0.012
465.56	-0.012
465.76	-0.012
465.97	-0.012
466.17	-0.012
466.37	-0.012
466.57	-0.012
466.78	-0.012
466.98	-0.012
467.18	-0.012
467.38	-0.012
467.59	-0.012
467.79	-0.012
467.99	-0.012
468.19	-0.012
468.39	-0.012
468.60	-0.012
468.80	-0.012
469.00	-0.012
469.20	-0.012
469.41	-0.012
469.61	-0.012
469.81	-0.012
470.01	-0.012
470.22	-0.012
470.42	-0.012
470.62	-0.012
470.82	-0.012
471.02	-0.012
471.23	-0.012
471.43	-0.012
471.63	-0.012
471.83	-0.012
472.04	-0.012
472.24	-0.012
472.44	-0.012
472.64	-0.012
472.84	-0.012
473.05	-0.011
473.25	-0.010
473.45	-0.009
473.65	-0.008
473.85	-0.007
474.06	-0.006
474.26	-0.005
474.46	-0.004
474.66	-0.003
474.86	-0.002
475.07	-0.001
475.27	-0.001
475.47	-0.000
475.67	-0.000
475.87	-0.000
476.08	0.000
476.28	0.000
476.48	0.000
476.68	0.000
476.88	0.000
477.09	0.000
477.29	0.000
477.49	0.000
477.69	0.000
477.89	0.000
478.09	0.000
478.30	0.000
478.50	0.000
478.70	0.000
478.90	0.000
479.10	0.000
479.31	0.000
479.51	0.000
479.71	0.000
479.91	0.000
480.11	0.000
480.31	0.000
480.52	0.000
480.72	0.000
480.92	0.000
481.12	0.000
481.32	0.000
481.52	0.000
481.72	0.000
481.93	0.000
482.13	0.000
482.33	0.000
482.53	0.000
482.73	0.000
482.93	0.000
483.14	0.000
483.34	0.000
483.54	0.000
483.74	0.000
483.94	0.000
484.14	0.000
484.34	0.000
484.55	0.000
484.75	0.000
484.95	0.000
485.15	0.000
485.35	0.000
485.55	0.000
485.75	0.000
485.96	0.000
486.16	0.000
486.36	0.000
486.56	0.000
486.76	0.000
486.96	0.000
487.16	0.000
487.36	0.000
487.57	0.000
487.77	0.000
487.97	0.000
488.17	0.000
488.37	0.000
488.57	0.000
488.77	0.000
488.97	0.000
489.18	0.000
489.38	0.000
489.58	0.000
489.78	0.000
489.98	0.000
490.18	0.000
490.38	0.000
490.58	0.000
490.78	0.000
490.98	0.000
491.19	0.000
491.39	0.000
491.59	0.000
491.79	0.000
491.99	0.000
492.19	0.000
492.39	0.000
492.59	0.000
492.79	0.000
492.99	0.000
493.20	0.000
493.40	0.000
493.60	0.000
493.80	0.000
494.00	0.000
494.20	0.000
494.40	0.000
494.60	0.000
494.80	0.000
495.00	0.000
495.20	0.000
495.40	0.000
495.61	0.000
495.81	0.000
496.01	0.000
496.21	0.000
496.41	0.000
496.61	0.000
496.81	0.000
497.01	0.000
497.21	0.000
497.41	0.000
497.61	0.000
497.81	0.000
498.01	0.000
498.21	0.000
498.41	0.000
498.61	0.000
498.82	0.000
499.02	0.000
499.22	0.000
499.42	0.000
499.62	0.000
499.82	0.000
500.02	0.000
500.22	0.000
500.42	0.000
500.62	0.000
500.82	0.000
501.02	0.000
501.22	0.000
501.42	0.000
501.62	0.000
501.82	0.000
502.02	0.000
502.22	0.000
502.42	0.000
502.62	0.000
502.82	0.000
503.02	0.000
503.22	0.000
503.42	0.000
503.63	0.000
503.83	0.000
504.03	0.000
504.23	0.000
504.43	0.000
504.63	0.000
504.83	0.000
505.03	0.000
505.23	0.000
505.43	0.000
505.63	0.000
505.83	0.000
506.03	0.000
506.23	0.000
506.43	0.000
506.63	0.000
506.83	0.000
507.03	0.000
507.23	0.000
507.43	0.000
507.63	0.000
507.83	0.000
508.03	0.000
508.23	0.000
508.43	0.000
508.63	0.000
508.83	0.000
509.03	0.000
509.23	0.000
509.43	0.000
509.63	0.000
509.83	0.000
510.03	0.000
510.23	0.000
510.43	0.000
510.63	0.000
510.83	0.000
511.03	0.000
511.23	0.000
511.43	0.000
511.63	0.000
511.83	0.000
512.03	0.000
512.22	0.000
512.42	0.000
512.62	0.000
512.82	0.000
513.02	0.000
513.22	0.000
513.42	0.000
513.62	0.000
513.82	0.000
514.02	0.000
514.22	0.000
514.42	0.000
514.62	0.000
514.82	0.000
515.02	0.000
515.22	0.000
515.42	0.000
515.62	0.000
515.82	0.000
516.02	0.000
516.22	0.000
516.42	0.000
516.62	0.000
516.82	0.000
517.01	0.000
517.21	0.000
517.41	0.000
517.61	0.000
517.81	0.000
518.01	0.000
518.21	0.000
518.41	0.000
518.61	0.000
518.81	0.000
519.01	0.000
519.21	0.000
519.41	0.000
519.61	0.000
519.81	0.000
520.00	0.000
520.20	0.000
520.40	0.000
520.60	-0.000
520.80	-0.000
521.00	-0.000
521.20	-0.000
521.40	-0.000
521.60	-0.000
521.80	-0.000
522.00	-0.000
522.20	-0.000
522.39	-0.000
522.59	-0.001
522.79	-0.001
522.99	-0.001
523.19	-0.001
523.39	-0.001
523.59	-0.001
523.79	-0.001
523.99	-0.001
524.19	-0.001
524.38	-0.001
524.58	-0.002
524.78	-0.002
524.98	-0.002
525.18	-0.002
525.38	-0.002
525.58	-0.002
525.78	-0.003
525.98	-0.003
526.18	-0.003
526.37	-0.003
526.57	-0.003
526.77	-0.003
526.97	-0.003
527.17	-0.003
527.37	-0.003
527.57	-0.003
527.77	-0.003
527.96	-0.002
528.16	-0.002
528.36	-0.002
528.56	-0.003
528.76	-0.002
528.96	-0.002
529.16	-0.002
529.36	-0.003
529.55	-0.002
529.75	-0.002
529.95	-0.003
530.15	-0.003
530.35	-0.003
530.55	-0.003
530.75	-0.003
530.94	-0.003
531.14	-0.003
531.34	-0.003
531.54	-0.003
531.74	-0.003
531.94	-0.003
532.13	-0.003
532.33	-0.002
532.53	-0.002
532.73	-0.002
532.93	-0.002
533.13	-0.001
533.33	-0.001
533.52	-0.001
533.72	-0.001
533.92	-0.000
534.12	-0.000
534.32	-0.000
534.52	-0.000
534.71	-0.000
534.91	-0.000
535.11	-0.000
535.31	-0.000
535.51	-0.000
535.71	-0.000
535.90	-0.000
536.10	-0.000
536.30	-0.000
536.50	-0.000
536.70	-0.000
536.89	-0.000
537.09	-0.000
537.29	-0.000
537.49	-0.000
537.69	-0.000
537.89	0.000
538.08	0.000
538.28	0.000
538.48	0.000
538.68	0.000
538.88	0.000
539.07	0.000
539.27	0.000
539.47	0.000
539.67	0.000
539.87	0.000
540.06	0.000
540.26	0.000
540.46	0.000
540.66	0.000
540.86	0.000
541.05	-0.000
541.25	-0.000
541.45	-0.000
541.65	-0.000
541.84	-0.000
542.04	-0.000
542.24	-0.000
542.44	-0.000
542.64	-0.000
542.83	-0.000
543.03	-0.000
543.23	-0.000
543.43	-0.000
543.62	-0.000
543.82	-0.000
544.02	-0.000
544.22	-0.000
544.42	-0.000
544.61	-0.000
544.81	-0.000
545.01	0.000
545.21	0.000
545.40	0.000
545.60	0.000
545.80	0.000
546.00	0.000
546.19	0.000
546.39	0.000
546.59	0.000
546.79	0.000
546.98	0.000
547.18	0.000
547.38	0.000
547.58	0.000
547.77	0.000
547.97	0.000
548.17	-0.000
548.37	-0.000
548.56	-0.000
548.76	-0.000
548.96	-0.001
549.16	-0.001
549.35	-0.001
549.55	-0.002
549.75	-0.002
549.95	-0.003
550.14	-0.003
550.34	-0.004
550.54	-0.004
550.73	-0.005
550.93	-0.005
551.13	-0.005
551.33	-0.005
551.52	-0.005
551.72	-0.004
551.92	-0.004
552.12	-0.004
552.31	-0.003
552.51	-0.003
552.71	-0.002
552.90	-0.002
553.10	-0.002
553.30	-0.001
553.50	-0.001
553.69	-0.001
553.89	-0.000
554.09	-0.000
554.28	-0.000
554.48	-0.000
554.68	-0.001
554.87	-0.001
555.07	-0.001
555.27	-0.002
555.47	-0.003
555.66	-0.004
555.86	-0.005
556.06	-0.006
556.25	-0.007
556.45	-0.008
556.65	-0.009
556.84	-0.010
557.04	-0.010
557.24	-0.011
557.43	-0.011
557.63	-0.011
557.83	-0.012
558.02	-0.012
558.22	-0.012
558.42	-0.012
558.61	-0.012
558.81	-0.012
559.01	-0.012
559.21	-0.012
559.40	-0.012
559.60	-0.012
559.80	-0.012
559.99	-0.011
560.19	-0.010
560.39	-0.009
560.58	-0.008
560.78	-0.007
560.97	-0.006
561.17	-0.005
561.37	-0.004
561.56	-0.003
561.76	-0.002
561.96	-0.001
562.15	-0.001
562.35	-0.000
562.55	-0.000
562.74	-0.000
562.94	-0.001
563.14	-0.001
563.33	-0.002
563.53	-0.002
563.73	-0.003
563.92	-0.004
564.12	-0.005
564.31	-0.006
564.51	-0.007
564.71	-0.008
564.90	-0.009
565.10	-0.010
565.30	-0.010
565.49	-0.011
565.69	-0.011
565.89	-0.011
566.08	-0.011
566.28	-0.010
566.47	-0.009
566.67	-0.009
566.87	-0.007
567.06	-0.006
567.26	-0.005
567.46	-0.004
567.65	-0.003
567.85	-0.002
568.04	-0.002
568.24	-0.001
568.44	-0.001
568.63	-0.000
568.83	0.000
569.02	0.000
569.22	0.000
569.42	0.000
569.61	0.000
569.81	0.000
570.00	0.000
570.20	0.000
570.40	0.000
570.59	0.000
570.79	0.000
570.98	0.000
571.18	0.000
571.38	0.000
571.57	0.000
571.77	0.000
571.96	0.000
572.16	0.000
572.35	0.000
572.55	0.000
572.75	0.000
572.94	0.000
573.14	0.000
573.33	0.000
573.53	0.000
573.73	0.000
573.92	0.000
574.12	0.000
574.31	0.000
574.51	0.000
574.70	0.000
574.90	0.000
575.09	0.000
575.29	0.000
575.49	0.000
575.68	0.000
575.88	0.000
576.07	0.000
576.27	0.000
576.46	0.000
576.66	0.000
576.86	0.000
577.05	0.000
577.25	0.000
577.44	0.000
577.64	0.000
577.83	0.000
578.03	0.000
578.22	0.000
578.42	0.000
578.61	0.000
578.81	0.000
579.00	0.000
579.20	0.000
579.40	0.000
579.59	0.000
579.79	0.000
579.98	0.000
580.18	0.000
580.37	0.000
580.57	0.000
580.76	0.000
580.96	0.000
581.15	0.000
581.35	0.000
581.54	0.000
581.74	0.000
581.93	0.000
582.13	0.000
582.32	0.000
582.52	0.000
582.71	0.000
582.91	0.000
583.10	0.000
583.30	0.000
583.49	0.000
583.69	0.000
583.88	0.000
584.08	0.000
584.27	0.000
584.47	0.000
584.66	0.000
584.86	0.000
585.05	0.000
585.25	0.000
585.44	0.000
585.64	0.000
585.83	0.000
586.03	0.000
586.22	0.000
586.42	0.000
586.61	0.000
586.81	0.000
587.00	0.000
587.20	0.000
587.39	0.000
587.59	0.000
587.78	0.000
587.98	0.000
588.17	0.000
588.37	0.000
588.56	0.000
588.76	0.000
588.95	0.000
589.15	0.000
589.34	0.000
589.54	0.000
589.73	0.000
589.92	0.000
590.12	0.000
590.31	0.000
590.51	0.000
590.70	0.000
590.90	0.000
591.09	0.000
591.29	0.000
591.48	0.000
591.68	0.000
591.87	0.000
592.06	0.000
592.26	0.000
592.45	0.000
592.65	0.000
592.84	0.000
593.04	0.000
593.23	0.000
593.43	0.000
593.62	0.000
593.81	0.000
594.01	0.000
594.20	0.000
594.40	0.000
594.59	0.000
594.79	0.000
594.98	0.000
595.17	0.000
595.37	0.000
595.56	0.000
595.76	0.000
595.95	0.000
596.14	0.000
596.34	0.000
596.53	0.000
596.73	0.000
596.92	0.000
597.12	0.000
597.31	0.000
597.50	0.000
597.70	0.000
597.89	0.000
598.09	0.000
598.28	0.000
598.47	0.000
598.67	0.000
598.86	0.000
599.06	0.000
599.25	0.000
599.44	0.000
599.64	0.000
599.83	0.000
600.03	0.000
600.22	0.000
600.41	0.000
600.61	0.000
600.80	0.000
601.00	0.000
601.19	0.000
601.38	0.000
601.58	0.000
601.77	0.000
601.96	0.000
602.16	0.000
602.35	0.000
602.55	0.000
602.74	0.000
602.93	0.000
603.13	0.000
603.32	0.000
603.51	0.000
603.71	0.000
603.90	0.000
604.09	0.000
604.29	0.000
604.48	0.000
604.68	0.000
604.87	0.000
605.06	0.000
605.26	0.000
605.45	0.000
605.64	0.000
605.84	0.000
606.03	0.000
606.22	0.000
606.42	0.000
606.61	0.000
606.80	0.000
607.00	0.000
607.19	0.000
607.38	0.000
607.58	0.000
607.77	0.000
607.96	0.000
608.16	0.000
608.35	0.000
608.54	0.000
608.74	0.000
608.93	0.000
609.12	0.000
609.32	0.000
609.51	0.000
609.70	0.000
609.90	0.000
610.09	0.000
610.28	0.000
610.48	0.000
610.67	0.000
610.86	0.000
611.06	0.000
611.25	0.000
611.44	0.000
611.64	0.000
611.83	0.000
612.02	0.000
612.21	0.000
612.41	0.000
612.60	0.000
612.79	0.000
612.99	0.000
613.18	0.000
613.37	0.000
613.57	0.000
613.76	0.000
613.95	0.000
614.14	0.000
614.34	0.000
614.53	0.000
614.72	0.000
614.92	0.000
615.11	0.000
615.30	0.000
615.49	0.000
615.69	-0.000
615.88	-0.000
616.07	-0.001
616.26	-0.001
616.46	-0.003
616.65	-0.004
616.84	-0.006
617.04	-0.008
617.23	-0.010
617.42	-0.012
617.61	-0.014
617.81	-0.016
618.00	-0.019
618.19	-0.021
618.38	-0.024
618.58	-0.025
618.77	-0.027
618.96	-0.029
619.15	-0.031
619.35	-0.032
619.54	-0.034
619.73	-0.036
619.92	-0.038
620.12	-0.039
620.31	-0.039
620.50	-0.040
620.69	-0.040
620.89	-0.041
621.08	-0.040
621.27	-0.039
621.46	-0.038
621.66	-0.037
621.85	-0.035
622.04	-0.033
622.23	-0.030
622.43	-0.029
622.62	-0.026
622.81	-0.025
623.00	-0.022
623.19	-0.020
623.39	-0.018
623.58	-0.017
623.77	-0.015
623.96	-0.015
624.16	-0.013
624.35	-0.013
624.54	-0.012
624.73	-0.012
624.92	-0.011
625.12	-0.011
625.31	-0.011
625.50	-0.011
625.69	-0.011
625.88	-0.011
626.08	-0.011
626.27	-0.011
626.46	-0.011
626.65	-0.011
626.84	-0.011
627.04	-0.011
627.23	-0.011
627.42	-0.011
627.61	-0.011
627.80	-0.011
628.00	-0.011
628.19	-0.011
628.38	-0.011
628.57	-0.011
628.76	-0.011
628.96	-0.011
629.15	-0.011
629.34	-0.011
629.53	-0.011
629.72	-0.011
629.91	-0.011
630.11	-0.011
630.30	-0.011
630.49	-0.011
630.68	-0.011
630.87	-0.011
631.06	-0.011
631.26	-0.011
631.45	-0.011
631.64	-0.011
631.83	-0.011
632.02	-0.011
632.21	-0.011
632.41	-0.011
632.60	-0.011
632.79	-0.011
632.98	-0.011
633.17	-0.011
633.36	-0.011
633.55	-0.011
633.75	-0.011
633.94	-0.011
634.13	-0.011
634.32	-0.011
634.51	-0.011
634.70	-0.011
634.89	-0.011
635.09	-0.011
635.28	-0.011
635.47	-0.011
635.66	-0.011
635.85	-0.011
636.04	-0.011
636.23	-0.011
636.43	-0.011
636.62	-0.011
636.81	-0.011
637.00	-0.011
637.19	-0.011
637.38	-0.011
637.57	-0.011
637.76	-0.011
637.95	-0.011
638.15	-0.011
638.34	-0.011
638.53	-0.011
638.72	-0.011
638.91	-0.011
639.10	-0.011
639.29	-0.011
639.48	-0.011
639.67	-0.011
639.87	-0.012
640.06	-0.012
640.25	-0.011
640.44	-0.012
640.63	-0.012
640.82	-0.012
641.01	-0.012
641.20	-0.012
641.39	-0.012
641.58	-0.012
641.78	-0.012
641.97	-0.011
642.16	-0.011
642.35	-0.011
642.54	-0.011
642.73	-0.011
642.92	-0.011
643.11	-0.011
643.30	-0.011
643.49	-0.011
643.68	-0.011
643.87	-0.011
644.06	-0.011
644.25	-0.011
644.45	-0.011
644.64	-0.011
644.83	-0.011
645.02	-0.011
645.21	-0.011
645.40	-0.011
645.59	-0.011
645.78	-0.011
645.97	-0.011
646.16	-0.011
646.35	-0.011
646.54	-0.011
646.73	-0.011
646.92	-0.011
647.11	-0.011
647.30	-0.011
647.49	-0.011
647.68	-0.011
647.88	-0.011
648.07	-0.011
648.26	-0.011
648.45	-0.011
648.64	-0.011
648.83	-0.012
649.02	-0.011
649.21	-0.011
649.40	-0.011
649.59	-0.011
649.78	-0.011
649.97	-0.011
650.16	-0.011
650.35	-0.011
650.54	-0.011
650.73	-0.011
650.92	-0.011
651.11	-0.011
651.30	-0.011
651.49	-0.011
651.68	-0.011
651.87	-0.011
652.06	-0.011
652.25	-0.011
652.44	-0.011
652.63	-0.011
652.82	-0.011
653.01	-0.011
653.20	-0.010
653.39	-0.009
653.58	-0.008
653.77	-0.007
653.96	-0.006
654.15	-0.005
654.34	-0.004
654.53	-0.003
654.72	-0.002
654.91	-0.001
655.10	-0.000
655.29	0.000
655.48	0.000
655.67	0.000
655.86	0.000
656.05	0.000
656.24	0.000
656.43	0.000
656.62	0.000
656.81	0.000
657.00	0.000
657.19	0.000
657.38	0.000
657.57	0.000
657.76	-0.002
657.95	-0.005
658.14	-0.006
658.33	-0.007
658.51	-0.008
658.70	-0.009
658.89	-0.010
659.08	-0.012
659.27	-0.013
659.46	-0.014
659.65	-0.015
659.84	-0.015
660.03	-0.012
660.22	-0.011
660.41	-0.011
660.60	-0.011
660.79	-0.011
660.98	-0.011
661.17	-0.011
661.36	-0.011
661.55	-0.011
661.74	-0.011
661.92	-0.011
662.11	-0.011
662.30	-0.011
662.49	-0.011
662.68	-0.011
662.87	-0.011
663.06	-0.011
663.25	-0.011
663.44	-0.011
663.63	-0.011
663.82	-0.011
664.01	-0.011
664.20	-0.011
664.38	-0.011
664.57	-0.011
664.76	-0.011
664.95	-0.011
665.14	-0.011
665.33	-0.011
665.52	-0.011
665.71	-0.011
665.90	-0.011
666.09	-0.011
666.28	-0.011
666.46	-0.011
666.65	-0.011
666.84	-0.011
667.03	-0.011
667.22	-0.011
667.41	-0.011
667.60	-0.011
667.79	-0.011
667.98	-0.011
668.16	-0.011
668.35	-0.011
668.54	-0.011
668.73	-0.011
668.92	-0.011
669.11	-0.011
669.30	-0.011
669.49	-0.011
669.67	-0.011
669.86	-0.011
670.05	-0.011
670.24	-0.011
670.43	-0.011
670.62	-0.011
670.81	-0.011
671.00	-0.011
671.18	-0.011
671.37	-0.011
671.56	-0.011
671.75	-0.011
671.94	-0.011
672.13	-0.011
672.32	-0.011
672.50	-0.011
672.69	-0.011
672.88	-0.011
673.07	-0.011
673.26	-0.011
673.45	-0.011
673.63	-0.011
673.82	-0.011
674.01	-0.011
674.20	-0.011
674.39	-0.011
674.58	-0.011
674.76	-0.011
674.95	-0.011
675.14	-0.011
675.33	-0.011
675.52	-0.011
675.71	-0.011
675.89	-0.011
676.08	-0.011
676.27	-0.011
676.46	-0.011
676.65	-0.011
676.84	-0.011
677.02	-0.011
677.21	-0.011
677.40	-0.011
677.59	-0.011
677.78	-0.011
677.96	-0.011
678.15	-0.011
678.34	-0.011
678.53	-0.011
678.72	-0.011
678.90	-0.011
679.09	-0.011
679.28	-0.011
679.47	-0.011
679.66	-0.011
679.84	-0.011
680.03	-0.011
680.22	-0.011
680.41	-0.011
680.60	-0.011
680.78	-0.011
680.97	-0.011
681.16	-0.011
681.35	-0.011
681.53	-0.011
681.72	-0.011
681.91	-0.011
682.10	-0.011
682.29	-0.011
682.47	-0.011
682.66	-0.011
682.85	-0.011
683.04	-0.011
683.22	-0.011
683.41	-0.011
683.60	-0.011
683.79	-0.011
683.97	-0.011
684.16	-0.011
684.35	-0.011
684.54	-0.011
684.72	-0.011
684.91	-0.011
685.10	-0.011
685.29	-0.011
685.47	-0.011
685.66	-0.011
685.85	-0.011
686.04	-0.011
686.22	-0.011
686.41	-0.011
686.60	-0.011
686.79	-0.011
686.97	-0.011
687.16	-0.011
687.35	-0.011
687.54	-0.011
687.72	-0.011
687.91	-0.011
688.10	-0.011
688.29	-0.011
688.47	-0.011
688.66	-0.011
688.85	-0.011
689.03	-0.011
689.22	-0.011
689.41	-0.011
689.60	-0.011
689.78	-0.011
689.97	-0.011
690.16	-0.011
690.34	-0.011
690.53	-0.011
690.72	-0.011
690.91	-0.011
691.09	-0.011
691.28	-0.011
691.47	-0.011
691.65	-0.011
691.84	-0.011
692.03	-0.011
692.21	-0.011
692.40	-0.011
692.59	-0.011
692.77	-0.011
692.96	-0.011
693.15	-0.011
693.34	-0.011
693.52	-0.011
693.71	-0.011
693.90	-0.011
694.08	-0.011
694.27	-0.011
694.46	-0.011
694.64	-0.011
694.83	-0.011
695.02	-0.011
695.20	-0.011
695.39	-0.011
695.58	-0.011
695.76	-0.011
695.95	-0.011
696.14	-0.011
696.32	-0.011
696.51	-0.011
696.70	-0.011
696.88	-0.011
697.07	-0.011
697.26	-0.011
697.44	-0.011
697.63	-0.011
697.81	-0.011
698.00	-0.011
698.19	-0.011
698.37	-0.011
698.56	-0.011
698.75	-0.011
698.93	-0.011
699.12	-0.011
699.31	-0.011
699.49	-0.011
699.68	-0.011
699.87	-0.011
700.05	-0.011
700.24	-0.011
700.42	-0.011
700.61	-0.011
700.80	-0.011
700.98	-0.011
701.17	-0.011
701.36	-0.011
701.54	-0.011
701.73	-0.011
701.91	-0.011
702.10	-0.011
702.29	-0.011
702.47	-0.011
702.66	-0.011
702.84	-0.011
703.03	-0.011
703.22	-0.011
703.40	-0.011
703.59	-0.011
703.77	-0.011
703.96	-0.011
704.15	-0.011
704.33	-0.011
704.52	-0.011
704.70	-0.011
704.89	-0.011
705.08	-0.011
705.26	-0.011
705.45	-0.011
705.63	-0.011
705.82	-0.011
706.00	-0.011
706.19	-0.011
706.38	-0.011
706.56	-0.011
706.75	-0.011
706.93	-0.011
707.12	-0.011
707.30	-0.011
707.49	-0.011
707.68	-0.011
707.86	-0.011
708.05	-0.011
708.23	-0.011
708.42	-0.011
708.60	-0.011
708.79	-0.011
708.98	-0.011
709.16	-0.011
709.35	-0.011
709.53	-0.011
709.72	-0.011
709.90	-0.011
710.09	-0.011
710.27	-0.011
710.46	-0.011
710.64	-0.011
710.83	-0.011
711.02	-0.011
711.20	-0.011
711.39	-0.011
711.57	-0.011
711.76	-0.011
711.94	-0.011
712.13	-0.011
712.31	-0.011
712.50	-0.011
712.68	-0.011
712.87	-0.011
713.05	-0.011
713.24	-0.011
713.42	-0.011
713.61	-0.012
713.79	-0.011
713.98	-0.012
714.16	-0.012
714.35	-0.012
714.54	-0.011
714.72	-0.011
714.91	-0.011
715.09	-0.011
715.28	-0.011
715.46	-0.011
715.65	-0.011
715.83	-0.011
716.02	-0.011
716.20	-0.011
716.39	-0.011
716.57	-0.011
716.76	-0.011
716.94	-0.011
717.12	-0.011
717.31	-0.011
717.49	-0.011
717.68	-0.011
717.86	-0.011
718.05	-0.011
718.23	-0.011
718.42	-0.011
718.60	-0.011
718.79	-0.011
718.97	-0.011
719.16	-0.011
719.34	-0.011
719.53	-0.011
719.71	-0.011
719.90	-0.011
720.08	-0.011
720.27	-0.011
720.45	-0.011
720.63	-0.011
720.82	-0.011
721.00	-0.011
721.19	-0.011
721.37	-0.011
721.56	-0.011
721.74	-0.011
721.93	-0.011
722.11	-0.011
722.30	-0.011
722.48	-0.011
722.66	-0.011
722.85	-0.011
723.03	-0.011
723.22	-0.011
723.40	-0.011
723.59	-0.011
723.77	-0.011
723.95	-0.011
724.14	-0.011
724.32	-0.011
724.51	-0.011
724.69	-0.011
724.88	-0.011
725.06	-0.011
725.24	-0.011
725.43	-0.011
725.61	-0.011
725.80	-0.011
725.98	-0.011
726.16	-0.011
726.35	-0.011
726.53	-0.011
726.72	-0.011
726.90	-0.011
727.09	-0.011
727.27	-0.011
727.45	-0.011
727.64	-0.011
727.82	-0.012
728.01	-0.012
728.19	-0.012
728.37	-0.012
728.56	-0.012
728.74	-0.012
728.92	-0.012
729.11	-0.012
729.29	-0.012
729.48	-0.012
729.66	-0.012
729.84	-0.012
730.03	-0.012
730.21	-0.012
730.40	-0.012
730.58	-0.013
730.76	-0.012
730.95	-0.012
731.13	-0.012
731.31	-0.012
731.50	-0.012
731.68	-0.012
731.86	-0.012
732.05	-0.012
732.23	-0.012
732.42	-0.012
732.60	-0.011
732.78	-0.011
732.97	-0.011
733.15	-0.011
733.33	-0.011
733.52	-0.011
733.70	-0.011
733.88	-0.011
734.07	-0.011
734.25	-0.011
734.43	-0.011
734.62	-0.011
734.80	-0.011
734.98	-0.011
735.17	-0.011
735.35	-0.011
735.53	-0.011
735.72	-0.011
735.90	-0.011
736.08	-0.011
736.27	-0.011
736.45	-0.011
736.63	-0.011
736.82	-0.011
737.00	-0.011
737.18	-0.011
737.37	-0.011
737.55	-0.012
737.73	-0.012
737.92	-0.011
738.10	-0.011
738.28	-0.011
738.46	-0.011
738.65	-0.011
738.83	-0.011
739.01	-0.011
739.20	-0.011
739.38	-0.011
739.56	-0.011
739.75	-0.011
739.93	-0.011
740.11	-0.012
740.29	-0.011
740.48	-0.011
740.66	-0.011
740.84	-0.011
741.03	-0.012
741.21	-0.012
741.39	-0.012
741.57	-0.012
741.76	-0.011
741.94	-0.012
742.12	-0.012
742.31	-0.012
742.49	-0.012
742.67	-0.012
742.85	-0.012
743.04	-0.012
743.22	-0.012
743.40	-0.012
743.58	-0.012
743.77	-0.013
743.95	-0.013
744.13	-0.013
744.31	-0.013
744.50	-0.014
744.68	-0.014
744.86	-0.014
745.04	-0.014
745.23	-0.013
745.41	-0.013
745.59	-0.013
745.77	-0.013
745.96	-0.013
746.14	-0.012
746.32	-0.012
746.50	-0.012
746.69	-0.012
746.87	-0.011
747.05	-0.011
747.23	-0.011
747.42	-0.011
747.60	-0.011
747.78	-0.011
747.96	-0.011
748.14	-0.011
748.33	-0.011
748.51	-0.011
748.69	-0.011
748.87	-0.011
749.06	-0.011
749.24	-0.011
749.42	-0.012
749.60	-0.011
749.78	-0.012
749.97	-0.012
750.15	-0.012
750.33	-0.012
750.51	-0.012
750.69	-0.012
750.88	-0.012
751.06	-0.012
751.24	-0.012
751.42	-0.012
751.60	-0.012
751.79	-0.011
751.97	-0.011
752.15	-0.011
752.33	-0.012
752.51	-0.012
752.69	-0.012
752.88	-0.012
753.06	-0.012
753.24	-0.012
753.42	-0.012
753.60	-0.012
753.78	-0.013
753.97	-0.013
754.15	-0.013
754.33	-0.012
754.51	-0.012
754.69	-0.012
754.87	-0.012
755.06	-0.012
755.24	-0.012
755.42	-0.012
755.60	-0.011
755.78	-0.011
755.96	-0.011
756.15	-0.010
756.33	-0.010
756.51	-0.010
756.69	-0.010
756.87	-0.010
757.05	-0.010
757.23	-0.010
757.42	-0.011
757.60	-0.011
757.78	-0.012
757.96	-0.012
758.14	-0.012
758.32	-0.012
758.50	-0.012
758.69	-0.012
758.87	-0.012
759.05	-0.012
759.23	-0.011
759.41	-0.011
759.59	-0.011
759.77	-0.011
759.95	-0.011
760.13	-0.011
760.32	-0.011
760.50	-0.011
760.68	-0.011
760.86	-0.012
761.04	-0.012
761.22	-0.012
761.40	-0.012
761.58	-0.012
761.76	-0.012
761.95	-0.011
762.13	-0.011
762.31	-0.012
762.49	-0.012
762.67	-0.012
762.85	-0.012
763.03	-0.012
763.21	-0.012
763.39	-0.012
763.57	-0.011
763.75	-0.012
763.94	-0.012
764.12	-0.011
764.30	-0.012
764.48	-0.011
764.66	-0.012
764.84	-0.012
765.02	-0.011
765.20	-0.011
765.38	-0.012
765.56	-0.012
765.74	-0.012
765.92	-0.011
766.10	-0.011
766.28	-0.012
766.46	-0.012
766.65	-0.011
766.83	-0.012
767.01	-0.012
767.19	-0.012
767.37	-0.012
767.55	-0.012
767.73	-0.012
767.91	-0.012
768.09	-0.012
768.27	-0.012
768.45	-0.012
768.63	-0.012
768.81	-0.012
768.99	-0.012
769.17	-0.012
769.35	-0.012
769.53	-0.012
769.71	-0.012
769.89	-0.012
770.07	-0.012
770.25	-0.012
770.43	-0.012
770.61	-0.012
770.79	-0.011
770.97	-0.011
771.15	-0.012
771.33	-0.012
771.51	-0.012
771.69	-0.012
771.87	-0.012
772.05	-0.012
772.24	-0.011
772.42	-0.012
772.60	-0.012
772.78	-0.012
772.96	-0.012
773.14	-0.012
773.32	-0.012
773.49	-0.012
773.67	-0.012
773.85	-0.012
774.03	-0.013
774.21	-0.013
774.39	-0.013
774.57	-0.013
774.75	-0.013
774.93	-0.013
775.11	-0.013
775.29	-0.013
775.47	-0.013
775.65	-0.012
775.83	-0.012
776.01	-0.012
776.19	-0.012
776.37	-0.012
776.55	-0.012
776.73	-0.011
776.91	-0.011
777.09	-0.011
777.27	-0.011
777.45	-0.011
777.63	-0.012
777.81	-0.012
777.99	-0.012
778.17	-0.011
778.35	-0.012
778.53	-0.012
778.71	-0.012
778.89	-0.012
779.07	-0.013
779.24	-0.013
779.42	-0.012
779.60	-0.012
779.78	-0.012
779.96	-0.012
780.14	-0.012
780.32	-0.012
780.50	-0.011
780.68	-0.012
780.86	-0.011
781.04	-0.011
781.22	-0.011
781.40	-0.011
781.58	-0.011
781.75	-0.011
781.93	-0.011
782.11	-0.011
782.29	-0.011
782.47	-0.011
782.65	-0.011
782.83	-0.011
783.01	-0.011
783.19	-0.011
783.37	-0.011
783.55	-0.011
783.72	-0.011
783.90	-0.011
784.08	-0.012
784.26	-0.012
784.44	-0.011
784.62	-0.012
784.80	-0.012
784.98	-0.012
785.16	-0.012
785.33	-0.012
785.51	-0.012
785.69	-0.012
785.87	-0.011
786.05	-0.012
786.23	-0.012
786.41	-0.012
786.59	-0.012
786.77	-0.012
786.94	-0.012
787.12	-0.012
787.30	-0.012
787.48	-0.012
787.66	-0.012
787.84	-0.012
788.02	-0.012
788.19	-0.012
788.37	-0.012
788.55	-0.012
788.73	-0.012
788.91	-0.012
789.09	-0.012
789.27	-0.012
789.44	-0.012
789.62	-0.012
789.80	-0.012
789.98	-0.012
790.16	-0.012
790.34	-0.012
790.51	-0.012
790.69	-0.012
790.87	-0.012
791.05	-0.012
791.23	-0.012
791.41	-0.012
791.58	-0.011
791.76	-0.011
791.94	-0.011
792.12	-0.011
792.30	-0.011
792.48	-0.011
792.65	-0.011
792.83	-0.011
793.01	-0.011
793.19	-0.011
793.37	-0.011
793.54	-0.011
793.72	-0.011
793.90	-0.011
794.08	-0.012
794.26	-0.012
794.43	-0.012
794.61	-0.012
794.79	-0.012
794.97	-0.012
795.15	-0.012
795.32	-0.012
795.50	-0.012
795.68	-0.012
795.86	-0.012
796.04	-0.012
796.21	-0.012
796.39	-0.011
796.57	-0.011
796.75	-0.011
796.92	-0.011
797.10	-0.011
797.28	-0.012
797.46	-0.012
797.64	-0.012
797.81	-0.012
797.99	-0.012
798.17	-0.011
798.35	-0.011
798.52	-0.011
798.70	-0.011
798.88	-0.011
799.06	-0.011
799.23	-0.011
799.41	-0.011
799.59	-0.011
799.77	-0.011
799.94	-0.011
800.12	-0.011
800.30	-0.011
800.48	-0.011
800.65	-0.011
800.83	-0.011
801.01	-0.010
801.19	-0.011
801.36	-0.010
801.54	-0.010
801.72	-0.011
801.90	-0.011
802.07	-0.011
802.25	-0.011
802.43	-0.011
802.60	-0.011
802.78	-0.011
802.96	-0.011
803.14	-0.011
803.31	-0.011
803.49	-0.012
803.67	-0.011
803.84	-0.012
804.02	-0.011
804.20	-0.011
804.38	-0.011
804.55	-0.011
804.73	-0.011
804.91	-0.012
805.08	-0.011
805.26	-0.011
805.44	-0.011
805.61	-0.011
805.79	-0.011
805.97	-0.011
806.15	-0.011
806.32	-0.011
806.50	-0.011
806.68	-0.011
806.85	-0.011
807.03	-0.011
807.21	-0.011
807.38	-0.011
807.56	-0.011
807.74	-0.011
807.91	-0.012
808.09	-0.012
808.27	-0.012
808.44	-0.012
808.62	-0.011
808.80	-0.012
808.97	-0.012
809.15	-0.012
809.33	-0.012
809.50	-0.012
809.68	-0.012
809.86	-0.011
810.03	-0.012
810.21	-0.011
810.39	-0.011
810.56	-0.011
810.74	-0.011
810.91	-0.011
811.09	-0.011
811.27	-0.011
811.44	-0.011
811.62	-0.011
811.80	-0.011
811.97	-0.010
812.15	-0.011
812.33	-0.011
812.50	-0.011
812.68	-0.011
812.85	-0.011
813.03	-0.011
813.21	-0.011
813.38	-0.011
813.56	-0.012
813.74	-0.012
813.91	-0.012
814.09	-0.012
814.26	-0.012
814.44	-0.012
814.62	-0.012
814.79	-0.012
814.97	-0.013
815.14	-0.012
815.32	-0.012
815.50	-0.012
815.67	-0.012
815.85	-0.012
816.02	-0.012
816.20	-0.013
816.38	-0.013
816.55	-0.012
816.73	-0.012
816.90	-0.012
817.08	-0.013
817.26	-0.013
817.43	-0.013
817.61	-0.014
817.78	-0.013
817.96	-0.013
818.13	-0.013
818.31	-0.012
818.49	-0.013
818.66	-0.013
818.84	-0.012
819.01	-0.012
819.19	-0.012
819.36	-0.012
819.54	-0.012
819.71	-0.012
819.89	-0.012
820.07	-0.011
820.24	-0.012
820.42	-0.012
820.59	-0.012
820.77	-0.012
820.94	-0.012
821.12	-0.012
821.29	-0.012
821.47	-0.012
821.64	-0.012
821.82	-0.012
822.00	-0.012
822.17	-0.012
822.35	-0.012
822.52	-0.012
822.70	-0.012
822.87	-0.012
823.05	-0.012
823.22	-0.012
823.40	-0.012
823.57	-0.012
823.75	-0.013
823.92	-0.012
824.10	-0.013
824.27	-0.013
824.45	-0.013
824.62	-0.013
824.80	-0.013
824.97	-0.013
825.15	-0.013
825.32	-0.013
825.50	-0.013
825.67	-0.012
825.85	-0.012
826.02	-0.012
826.20	-0.011
826.37	-0.011
826.55	-0.011
826.72	-0.011
826.90	-0.011
827.07	-0.011
827.25	-0.011
827.42	-0.011
827.60	-0.011
827.77	-0.011
827.95	-0.010
828.12	-0.011
828.30	-0.011
828.47	-0.011
828.65	-0.011
828.82	-0.010
829.00	-0.010
829.17	-0.010
829.34	-0.010
829.52	-0.010
829.69	-0.010
829.87	-0.010
830.04	-0.010
830.22	-0.010
830.39	-0.010
830.57	-0.010
830.74	-0.010
830.92	-0.010
831.09	-0.010
831.26	-0.008
831.44	-0.009
831.61	-0.010
831.79	-0.010
831.96	-0.010
832.14	-0.011
832.31	-0.012
832.49	-0.012
832.66	-0.012
832.83	-0.012
833.01	-0.013
833.18	-0.013
833.36	-0.013
833.53	-0.013
833.70	-0.012
833.88	-0.012
834.05	-0.012
834.23	-0.012
834.40	-0.012
834.58	-0.012
834.75	-0.012
834.92	-0.014
835.10	-0.014
835.27	-0.014
835.45	-0.014
835.62	-0.014
835.79	-0.014
835.97	-0.014
836.14	-0.013
836.32	-0.014
836.49	-0.013
836.66	-0.013
836.84	-0.012
837.01	-0.011
837.18	-0.012
837.36	-0.011
837.53	-0.012
837.71	-0.011
837.88	-0.010
838.05	-0.011
838.23	-0.009
838.40	-0.009
838.58	-0.009
838.75	-0.009
838.92	-0.010
839.10	-0.009
839.27	-0.010
839.44	-0.011
839.62	-0.011
839.79	-0.011
839.96	-0.011
840.14	-0.011
840.31	-0.012
840.48	-0.013
840.66	-0.013
840.83	-0.012
841.01	-0.011
841.18	-0.010
841.35	-0.010
841.53	-0.011
841.70	-0.011
841.87	-0.012
842.05	-0.012
842.22	-0.013
842.39	-0.012
842.57	-0.013
842.74	-0.015
842.91	-0.016
843.09	-0.017
843.26	-0.016
843.43	-0.017
843.60	-0.018
843.78	-0.018
843.95	-0.017
844.12	-0.016
844.30	-0.017
844.47	-0.015
844.64	-0.017
844.82	-0.016
844.99	-0.015
845.16	-0.017
845.34	-0.014
845.51	-0.013
845.68	-0.013
845.85	-0.013
846.03	-0.014
846.20	-0.013
846.37	-0.013
846.55	-0.011
846.72	-0.010
846.89	-0.010
847.06	-0.009
847.24	-0.010
847.41	-0.010
847.58	-0.010
847.76	-0.010
847.93	-0.009
848.10	-0.011
848.27	-0.012
848.45	-0.011
848.62	-0.013
848.79	-0.014
848.97	-0.012
849.14	-0.011
849.31	-0.011
849.48	-0.011
849.66	-0.012
849.83	-0.011
850.00	-0.010
850.17	-0.009
850.35	-0.010
850.52	-0.008
850.69	-0.008
850.86	-0.011
851.04	-0.012
851.21	-0.013
851.38	-0.014
851.55	-0.014
851.72	-0.014
851.90	-0.013
852.07	-0.012
852.24	-0.013
852.41	-0.014
852.59	-0.013
852.76	-0.012
852.93	-0.012
853.10	-0.011
853.28	-0.012
853.45	-0.011
853.62	-0.013
853.79	-0.015
853.96	-0.017
854.14	-0.018
854.31	-0.018
854.48	-0.017
854.65	-0.020
854.82	-0.019
855.00	-0.020
855.17	-0.017
855.34	-0.018
855.51	-0.016
855.68	-0.013
855.86	-0.013
856.03	-0.011
856.20	-0.011
856.37	-0.011
856.54	-0.010
856.72	-0.012
856.89	-0.012
857.06	-0.014
857.23	-0.015
857.40	-0.016
857.57	-0.018
857.75	-0.016
857.92	-0.017
858.09	-0.018
858.26	-0.016
858.43	-0.016
858.60	-0.016
858.78	-0.014
858.95	-0.015
859.12	-0.014
859.29	-0.015
859.46	-0.014
859.63	-0.015
859.81	-0.015
859.98	-0.014
860.15	-0.015
860.32	-0.013
860.49	-0.014
860.66	-0.012
860.83	-0.011
861.01	-0.009
861.18	-0.006
861.35	-0.008
861.52	-0.009
861.69	-0.010
861.86	-0.006
862.03	-0.011
862.21	-0.010
862.38	-0.011
862.55	-0.013
862.72	-0.017
862.89	-0.017
863.06	-0.017
863.23	-0.015
863.40	-0.014
863.58	-0.011
863.75	-0.012
863.92	-0.010
864.09	-0.012
864.26	-0.009
864.43	-0.010
864.60	-0.008
864.77	-0.009
864.94	-0.012
865.11	-0.013
865.29	-0.014
865.46	-0.016
865.63	-0.019
865.80	-0.016
865.97	-0.017
866.14	-0.020
866.31	-0.017
866.48	-0.015
866.65	-0.016
866.82	-0.013
866.99	-0.013
867.16	-0.013
867.34	-0.011
867.51	-0.010
867.68	-0.009
867.85	-0.008
868.02	-0.007
868.19	-0.010
868.36	-0.012
868.53	-0.013
868.70	-0.013
868.87	-0.012
869.04	-0.011
869.21	-0.012
869.38	-0.012
869.55	-0.012
869.72	-0.011
869.89	-0.010
870.06	-0.007
870.24	-0.007
870.41	-0.003
870.58	-0.003
870.75	-0.003
870.92	-0.000
871.09	-0.000
871.26	-0.000
871.43	-0.002
871.60	-0.005
871.77	-0.002
871.94	-0.005
872.11	-0.005
872.28	-0.009
872.45	-0.011
872.62	-0.011
872.79	-0.012
872.96	-0.011
873.13	-0.012
873.30	-0.010
873.47	-0.006
873.64	-0.009
873.81	-0.009
873.98	-0.009
874.15	-0.007
874.32	-0.002
874.49	-0.007
874.66	-0.006
874.83	-0.007
875.00	-0.005
875.17	-0.005
875.34	-0.009
875.51	-0.009
875.68	-0.011
875.85	-0.010
876.02	-0.009
876.19	-0.011
876.36	-0.008
876.53	-0.012
876.70	-0.016
876.87	-0.016
877.04	-0.020
877.21	-0.014
877.38	-0.013
877.55	-0.005
877.72	-0.004
877.89	-0.008
878.06	-0.013
878.23	-0.011
878.39	-0.010
878.56	-0.004
878.73	-0.003
878.90	-0.005
879.07	-0.005
879.24	-0.005
879.41	-0.004
879.58	-0.009
879.75	-0.003
879.92	0.002
880.09	0.001
880.26	-0.002
880.43	-0.004
880.60	-0.005
880.77	-0.002
880.94	-0.005
881.11	-0.011
881.27	-0.017
881.44	-0.016
881.61	-0.015
881.78	-0.013
881.95	-0.014
882.12	-0.011
882.29	-0.011
882.46	-0.010
882.63	-0.008
882.80	-0.009
882.97	-0.004
883.14	0.000
883.30	0.006
883.47	0.001
883.64	-0.003
883.81	0.000
883.98	0.003
884.15	0.007
884.32	0.008
884.49	0.003
884.66	0.006
884.82	0.010
884.99	0.004
885.16	-0.003
885.33	0.005
885.50	0.004
885.67	-0.001
885.84	-0.004
886.01	-0.013
886.17	-0.024
886.34	-0.021
886.51	-0.025
886.68	-0.031
886.85	-0.031
887.02	-0.033
887.19	-0.046
887.36	-0.048
887.52	-0.051
887.69	-0.052
887.86	-0.047
888.03	-0.038
888.20	-0.035
888.37	-0.041
888.54	-0.044
888.70	-0.041
888.87	-0.035
889.04	-0.026
889.21	-0.016
889.38	-0.016
889.55	-0.001
889.71	-0.035
889.88	0.026
890.05	0.071
890.22	-0.077
890.39	0.125
>>>>>End Processed Spectral Data<<<<<
