SpectraSuite Data File
++++++++++++++++++++++++++++++++++++
Date: Mon Jun 15 09:37:52 PDT 2015
User: introlabs
Dark Spectrum Present: Yes
Reference Spectrum Present: Yes
Number of Sampled Component Spectra: 1
Spectrometers: USB4H08886
Integration Time (usec): 44366 (USB4H08886)
Spectra Averaged: 20 (USB4H08886)
Boxcar Smoothing: 5 (USB4H08886)
Correct for Electrical Dark: Yes (USB4H08886)
Strobe/Lamp Enabled: No (USB4H08886)
Correct for Detector Non-linearity: Yes (USB4H08886)
Correct for Stray Light: Yes (USB4H08886)
Number of Pixels in Processed Spectrum: 3648
>>>>>Begin Processed Spectral Data<<<<<
178.14	0.839
178.36	0.839
178.57	0.839
178.79	1.513
179.01	-0.902
179.22	0.358
179.44	0.119
179.65	0.208
179.87	0.168
180.08	0.359
180.30	0.369
180.52	0.239
180.73	0.173
180.95	0.074
181.16	0.021
181.38	-0.001
181.59	0.001
181.81	-0.008
182.03	-0.002
182.24	0.011
182.46	0.007
182.67	0.001
182.89	0.008
183.10	0.012
183.32	0.008
183.54	0.002
183.75	0.011
183.97	0.016
184.18	0.020
184.40	0.014
184.61	0.029
184.83	0.030
185.04	0.036
185.26	0.040
185.48	0.034
185.69	0.036
185.91	0.036
186.12	0.019
186.34	0.027
186.55	0.021
186.77	0.028
186.98	0.014
187.20	0.003
187.42	0.002
187.63	0.001
187.85	0.011
188.06	0.008
188.28	0.013
188.49	0.028
188.71	0.021
188.92	0.022
189.14	0.017
189.36	0.026
189.57	0.034
189.79	0.027
190.00	0.021
190.22	0.016
190.43	0.023
190.65	0.022
190.86	0.023
191.08	0.024
191.29	0.030
191.51	0.030
191.72	0.020
191.94	0.023
192.16	0.025
192.37	0.027
192.59	0.024
192.80	0.018
193.02	0.022
193.23	0.026
193.45	0.022
193.66	0.016
193.88	0.016
194.09	0.019
194.31	0.015
194.52	0.015
194.74	0.011
194.95	0.012
195.17	0.018
195.38	0.014
195.60	0.001
195.81	0.012
196.03	0.017
196.25	0.031
196.46	0.032
196.68	0.034
196.89	0.037
197.11	0.046
197.32	0.045
197.54	0.031
197.75	0.042
197.97	0.047
198.18	0.039
198.40	0.038
198.61	0.026
198.83	0.025
199.04	0.019
199.26	0.009
199.47	-0.003
199.69	0.007
199.90	0.018
200.12	0.005
200.33	0.013
200.55	0.012
200.76	0.005
200.98	0.007
201.19	-0.000
201.41	0.002
201.62	0.014
201.84	0.021
202.05	0.013
202.27	0.009
202.48	0.014
202.70	0.009
202.91	0.007
203.13	0.010
203.34	0.006
203.56	0.014
203.77	0.019
203.99	0.011
204.20	0.006
204.42	0.011
204.63	0.014
204.85	0.009
205.06	0.003
205.28	0.007
205.49	0.009
205.71	0.017
205.92	0.015
206.14	0.013
206.35	0.019
206.56	0.029
206.78	0.020
206.99	0.021
207.21	0.026
207.42	0.031
207.64	0.029
207.85	0.032
208.07	0.030
208.28	0.028
208.50	0.035
208.71	0.035
208.93	0.031
209.14	0.041
209.36	0.034
209.57	0.039
209.79	0.035
210.00	0.033
210.22	0.034
210.43	0.024
210.64	0.028
210.86	0.016
211.07	0.011
211.29	0.008
211.50	0.003
211.72	-0.002
211.93	-0.008
212.15	-0.004
212.36	-0.007
212.58	-0.007
212.79	0.007
213.01	0.003
213.22	0.009
213.43	0.009
213.65	0.009
213.86	0.008
214.08	0.021
214.29	0.023
214.51	0.021
214.72	0.019
214.94	0.017
215.15	0.017
215.36	0.015
215.58	0.012
215.79	0.015
216.01	0.022
216.22	0.022
216.44	0.019
216.65	0.017
216.87	0.023
217.08	0.028
217.29	0.036
217.51	0.030
217.72	0.030
217.94	0.037
218.15	0.038
218.37	0.032
218.58	0.029
218.80	0.031
219.01	0.032
219.22	0.030
219.44	0.031
219.65	0.024
219.87	0.026
220.08	0.023
220.30	0.019
220.51	0.022
220.72	0.021
220.94	0.026
221.15	0.027
221.37	0.023
221.58	0.021
221.79	0.026
222.01	0.019
222.22	0.015
222.44	0.016
222.65	0.014
222.87	0.010
223.08	0.011
223.29	0.009
223.51	0.007
223.72	0.011
223.94	0.010
224.15	0.006
224.36	0.010
224.58	0.011
224.79	0.017
225.01	0.016
225.22	0.011
225.44	0.013
225.65	0.016
225.86	0.017
226.08	0.015
226.29	0.010
226.51	0.006
226.72	0.007
226.93	0.009
227.15	0.004
227.36	0.002
227.58	0.001
227.79	0.004
228.00	0.003
228.22	-0.003
228.43	-0.004
228.65	0.002
228.86	0.006
229.07	0.005
229.29	0.004
229.50	0.003
229.72	0.004
229.93	0.006
230.14	0.004
230.36	0.000
230.57	-0.001
230.78	-0.003
231.00	-0.009
231.21	-0.016
231.43	-0.015
231.64	-0.016
231.85	-0.015
232.07	-0.016
232.28	-0.018
232.50	-0.022
232.71	-0.024
232.92	-0.022
233.14	-0.023
233.35	-0.018
233.56	-0.015
233.78	-0.018
233.99	-0.022
234.21	-0.023
234.42	-0.022
234.63	-0.022
234.85	-0.021
235.06	-0.021
235.27	-0.020
235.49	-0.019
235.70	-0.022
235.91	-0.023
236.13	-0.021
236.34	-0.020
236.56	-0.021
236.77	-0.022
236.98	-0.022
237.20	-0.023
237.41	-0.022
237.62	-0.022
237.84	-0.023
238.05	-0.022
238.26	-0.022
238.48	-0.023
238.69	-0.021
238.91	-0.021
239.12	-0.021
239.33	-0.020
239.55	-0.019
239.76	-0.018
239.97	-0.018
240.19	-0.016
240.40	-0.017
240.61	-0.016
240.83	-0.016
241.04	-0.015
241.25	-0.015
241.47	-0.014
241.68	-0.012
241.89	-0.012
242.11	-0.012
242.32	-0.011
242.53	-0.011
242.75	-0.009
242.96	-0.008
243.17	-0.007
243.39	-0.007
243.60	-0.006
243.81	-0.006
244.03	-0.006
244.24	-0.006
244.45	-0.005
244.67	-0.005
244.88	-0.004
245.09	-0.004
245.31	-0.004
245.52	-0.004
245.73	-0.004
245.95	-0.004
246.16	-0.003
246.37	-0.003
246.59	-0.003
246.80	-0.003
247.01	-0.002
247.23	-0.003
247.44	-0.002
247.65	-0.003
247.87	-0.003
248.08	-0.003
248.29	-0.002
248.51	-0.002
248.72	-0.001
248.93	-0.002
249.15	-0.001
249.36	-0.001
249.57	-0.001
249.78	-0.001
250.00	-0.001
250.21	-0.000
250.42	-0.000
250.64	-0.000
250.85	0.000
251.06	-0.000
251.28	0.000
251.49	0.000
251.70	0.000
251.92	0.001
252.13	0.001
252.34	0.002
252.55	0.002
252.77	0.002
252.98	0.002
253.19	0.002
253.41	0.002
253.62	0.002
253.83	0.003
254.05	0.002
254.26	0.002
254.47	0.002
254.68	0.001
254.90	0.001
255.11	0.002
255.32	0.002
255.54	0.002
255.75	0.002
255.96	0.002
256.17	0.001
256.39	0.002
256.60	0.002
256.81	0.002
257.03	0.002
257.24	0.002
257.45	0.001
257.66	0.001
257.88	0.001
258.09	0.000
258.30	0.000
258.51	0.000
258.73	0.000
258.94	0.000
259.15	-0.000
259.37	-0.000
259.58	-0.000
259.79	-0.000
260.00	-0.000
260.22	0.000
260.43	0.000
260.64	-0.000
260.85	-0.001
261.07	-0.001
261.28	-0.001
261.49	-0.001
261.71	-0.001
261.92	-0.002
262.13	-0.002
262.34	-0.002
262.56	-0.003
262.77	-0.003
262.98	-0.003
263.19	-0.003
263.41	-0.004
263.62	-0.004
263.83	-0.004
264.04	-0.005
264.26	-0.005
264.47	-0.005
264.68	-0.005
264.89	-0.005
265.11	-0.006
265.32	-0.005
265.53	-0.006
265.74	-0.006
265.96	-0.006
266.17	-0.006
266.38	-0.006
266.59	-0.006
266.81	-0.006
267.02	-0.007
267.23	-0.007
267.44	-0.008
267.65	-0.009
267.87	-0.009
268.08	-0.009
268.29	-0.009
268.50	-0.009
268.72	-0.010
268.93	-0.010
269.14	-0.010
269.35	-0.011
269.57	-0.011
269.78	-0.011
269.99	-0.011
270.20	-0.012
270.41	-0.011
270.63	-0.012
270.84	-0.012
271.05	-0.013
271.26	-0.013
271.48	-0.014
271.69	-0.014
271.90	-0.014
272.11	-0.014
272.32	-0.015
272.54	-0.015
272.75	-0.015
272.96	-0.016
273.17	-0.016
273.39	-0.015
273.60	-0.015
273.81	-0.015
274.02	-0.016
274.23	-0.015
274.45	-0.016
274.66	-0.016
274.87	-0.016
275.08	-0.016
275.29	-0.016
275.51	-0.016
275.72	-0.016
275.93	-0.016
276.14	-0.016
276.35	-0.016
276.57	-0.016
276.78	-0.016
276.99	-0.016
277.20	-0.016
277.41	-0.016
277.63	-0.016
277.84	-0.016
278.05	-0.016
278.26	-0.015
278.47	-0.016
278.69	-0.015
278.90	-0.015
279.11	-0.015
279.32	-0.015
279.53	-0.015
279.74	-0.015
279.96	-0.015
280.17	-0.014
280.38	-0.014
280.59	-0.014
280.80	-0.014
281.02	-0.013
281.23	-0.013
281.44	-0.013
281.65	-0.013
281.86	-0.013
282.07	-0.013
282.29	-0.012
282.50	-0.012
282.71	-0.012
282.92	-0.012
283.13	-0.012
283.35	-0.012
283.56	-0.012
283.77	-0.011
283.98	-0.011
284.19	-0.011
284.40	-0.010
284.62	-0.010
284.83	-0.010
285.04	-0.009
285.25	-0.008
285.46	-0.008
285.67	-0.007
285.88	-0.007
286.10	-0.006
286.31	-0.005
286.52	-0.005
286.73	-0.004
286.94	-0.003
287.15	-0.003
287.37	-0.002
287.58	-0.002
287.79	-0.001
288.00	-0.000
288.21	0.000
288.42	0.001
288.63	0.001
288.85	0.002
289.06	0.002
289.27	0.003
289.48	0.003
289.69	0.003
289.90	0.004
290.11	0.004
290.33	0.005
290.54	0.005
290.75	0.006
290.96	0.006
291.17	0.006
291.38	0.006
291.59	0.007
291.81	0.007
292.02	0.008
292.23	0.008
292.44	0.008
292.65	0.008
292.86	0.008
293.07	0.009
293.28	0.009
293.50	0.009
293.71	0.009
293.92	0.010
294.13	0.010
294.34	0.010
294.55	0.010
294.76	0.010
294.97	0.011
295.19	0.011
295.40	0.011
295.61	0.011
295.82	0.011
296.03	0.011
296.24	0.011
296.45	0.011
296.66	0.011
296.87	0.011
297.09	0.010
297.30	0.011
297.51	0.011
297.72	0.011
297.93	0.011
298.14	0.011
298.35	0.011
298.56	0.011
298.77	0.011
298.99	0.011
299.20	0.011
299.41	0.011
299.62	0.011
299.83	0.011
300.04	0.011
300.25	0.011
300.46	0.011
300.67	0.011
300.88	0.011
301.10	0.011
301.31	0.011
301.52	0.011
301.73	0.011
301.94	0.011
302.15	0.011
302.36	0.011
302.57	0.011
302.78	0.011
302.99	0.011
303.20	0.011
303.41	0.011
303.63	0.011
303.84	0.011
304.05	0.011
304.26	0.011
304.47	0.011
304.68	0.011
304.89	0.011
305.10	0.011
305.31	0.011
305.52	0.011
305.73	0.011
305.94	0.011
306.15	0.011
306.37	0.011
306.58	0.011
306.79	0.011
307.00	0.011
307.21	0.011
307.42	0.011
307.63	0.011
307.84	0.011
308.05	0.011
308.26	0.011
308.47	0.011
308.68	0.011
308.89	0.011
309.10	0.011
309.31	0.011
309.52	0.011
309.73	0.010
309.95	0.010
310.16	0.010
310.37	0.010
310.58	0.010
310.79	0.010
311.00	0.010
311.21	0.010
311.42	0.010
311.63	0.010
311.84	0.010
312.05	0.010
312.26	0.010
312.47	0.010
312.68	0.010
312.89	0.010
313.10	0.011
313.31	0.011
313.52	0.011
313.73	0.011
313.94	0.011
314.15	0.011
314.36	0.011
314.57	0.011
314.78	0.011
314.99	0.010
315.21	0.010
315.42	0.010
315.63	0.010
315.84	0.010
316.05	0.010
316.26	0.010
316.47	0.010
316.68	0.010
316.89	0.010
317.10	0.010
317.31	0.010
317.52	0.010
317.73	0.010
317.94	0.010
318.15	0.010
318.36	0.010
318.57	0.010
318.78	0.010
318.99	0.010
319.20	0.010
319.41	0.010
319.62	0.010
319.83	0.010
320.04	0.010
320.25	0.010
320.46	0.010
320.67	0.010
320.88	0.010
321.09	0.010
321.30	0.010
321.51	0.010
321.72	0.010
321.93	0.010
322.14	0.010
322.35	0.010
322.56	0.010
322.77	0.010
322.98	0.010
323.19	0.010
323.40	0.010
323.61	0.010
323.82	0.010
324.03	0.010
324.24	0.010
324.45	0.010
324.66	0.010
324.87	0.010
325.08	0.010
325.29	0.010
325.50	0.010
325.71	0.010
325.92	0.010
326.13	0.010
326.34	0.010
326.55	0.010
326.76	0.010
326.97	0.010
327.18	0.010
327.39	0.010
327.60	0.010
327.80	0.010
328.01	0.010
328.22	0.010
328.43	0.010
328.64	0.010
328.85	0.010
329.06	0.010
329.27	0.010
329.48	0.010
329.69	0.010
329.90	0.010
330.11	0.010
330.32	0.010
330.53	0.010
330.74	0.010
330.95	0.010
331.16	0.010
331.37	0.010
331.58	0.010
331.79	0.010
332.00	0.010
332.21	0.010
332.42	0.010
332.63	0.011
332.83	0.011
333.04	0.011
333.25	0.011
333.46	0.011
333.67	0.011
333.88	0.011
334.09	0.011
334.30	0.011
334.51	0.011
334.72	0.011
334.93	0.011
335.14	0.011
335.35	0.011
335.56	0.011
335.77	0.011
335.98	0.011
336.18	0.011
336.39	0.011
336.60	0.011
336.81	0.011
337.02	0.011
337.23	0.011
337.44	0.011
337.65	0.011
337.86	0.011
338.07	0.011
338.28	0.011
338.49	0.011
338.70	0.011
338.91	0.011
339.11	0.011
339.32	0.011
339.53	0.011
339.74	0.011
339.95	0.011
340.16	0.011
340.37	0.011
340.58	0.011
340.79	0.012
341.00	0.012
341.21	0.012
341.41	0.012
341.62	0.012
341.83	0.011
342.04	0.011
342.25	0.011
342.46	0.011
342.67	0.011
342.88	0.012
343.09	0.012
343.30	0.012
343.50	0.012
343.71	0.012
343.92	0.012
344.13	0.012
344.34	0.012
344.55	0.012
344.76	0.012
344.97	0.012
345.18	0.012
345.38	0.012
345.59	0.012
345.80	0.012
346.01	0.012
346.22	0.012
346.43	0.012
346.64	0.012
346.85	0.012
347.06	0.012
347.26	0.012
347.47	0.012
347.68	0.012
347.89	0.012
348.10	0.012
348.31	0.012
348.52	0.012
348.73	0.012
348.93	0.012
349.14	0.012
349.35	0.012
349.56	0.012
349.77	0.013
349.98	0.012
350.19	0.013
350.39	0.013
350.60	0.013
350.81	0.013
351.02	0.013
351.23	0.013
351.44	0.013
351.65	0.013
351.86	0.013
352.06	0.013
352.27	0.013
352.48	0.013
352.69	0.013
352.90	0.013
353.11	0.013
353.31	0.014
353.52	0.013
353.73	0.013
353.94	0.013
354.15	0.013
354.36	0.013
354.57	0.013
354.77	0.014
354.98	0.014
355.19	0.014
355.40	0.014
355.61	0.014
355.82	0.014
356.02	0.014
356.23	0.014
356.44	0.014
356.65	0.014
356.86	0.014
357.07	0.014
357.27	0.014
357.48	0.014
357.69	0.014
357.90	0.014
358.11	0.014
358.32	0.014
358.52	0.014
358.73	0.014
358.94	0.014
359.15	0.014
359.36	0.014
359.56	0.014
359.77	0.014
359.98	0.014
360.19	0.014
360.40	0.014
360.61	0.014
360.81	0.014
361.02	0.014
361.23	0.014
361.44	0.014
361.65	0.014
361.85	0.014
362.06	0.014
362.27	0.014
362.48	0.014
362.69	0.014
362.89	0.014
363.10	0.014
363.31	0.014
363.52	0.014
363.73	0.014
363.93	0.014
364.14	0.014
364.35	0.014
364.56	0.014
364.77	0.014
364.97	0.014
365.18	0.014
365.39	0.014
365.60	0.014
365.81	0.014
366.01	0.014
366.22	0.014
366.43	0.014
366.64	0.014
366.84	0.014
367.05	0.014
367.26	0.014
367.47	0.014
367.68	0.014
367.88	0.014
368.09	0.014
368.30	0.015
368.51	0.015
368.71	0.015
368.92	0.015
369.13	0.015
369.34	0.015
369.55	0.015
369.75	0.015
369.96	0.015
370.17	0.015
370.38	0.015
370.58	0.015
370.79	0.015
371.00	0.015
371.21	0.015
371.41	0.015
371.62	0.015
371.83	0.015
372.04	0.015
372.24	0.015
372.45	0.015
372.66	0.015
372.87	0.015
373.07	0.015
373.28	0.015
373.49	0.015
373.70	0.015
373.90	0.015
374.11	0.015
374.32	0.015
374.53	0.015
374.73	0.015
374.94	0.015
375.15	0.015
375.36	0.015
375.56	0.015
375.77	0.015
375.98	0.015
376.19	0.014
376.39	0.014
376.60	0.014
376.81	0.014
377.02	0.015
377.22	0.015
377.43	0.015
377.64	0.014
377.84	0.015
378.05	0.015
378.26	0.015
378.47	0.015
378.67	0.015
378.88	0.015
379.09	0.015
379.30	0.015
379.50	0.015
379.71	0.015
379.92	0.015
380.12	0.015
380.33	0.015
380.54	0.015
380.75	0.015
380.95	0.015
381.16	0.015
381.37	0.015
381.57	0.015
381.78	0.015
381.99	0.015
382.20	0.015
382.40	0.015
382.61	0.015
382.82	0.015
383.02	0.015
383.23	0.015
383.44	0.015
383.64	0.015
383.85	0.015
384.06	0.015
384.27	0.015
384.47	0.015
384.68	0.015
384.89	0.015
385.09	0.015
385.30	0.015
385.51	0.014
385.71	0.014
385.92	0.014
386.13	0.014
386.33	0.014
386.54	0.014
386.75	0.014
386.95	0.014
387.16	0.014
387.37	0.014
387.58	0.014
387.78	0.015
387.99	0.015
388.20	0.015
388.40	0.015
388.61	0.015
388.82	0.015
389.02	0.015
389.23	0.015
389.44	0.015
389.64	0.015
389.85	0.015
390.06	0.014
390.26	0.014
390.47	0.014
390.68	0.014
390.88	0.014
391.09	0.014
391.30	0.014
391.50	0.014
391.71	0.014
391.92	0.014
392.12	0.014
392.33	0.014
392.53	0.015
392.74	0.015
392.95	0.015
393.15	0.015
393.36	0.015
393.57	0.015
393.77	0.015
393.98	0.015
394.19	0.015
394.39	0.015
394.60	0.015
394.81	0.015
395.01	0.015
395.22	0.015
395.43	0.015
395.63	0.015
395.84	0.015
396.04	0.015
396.25	0.015
396.46	0.014
396.66	0.015
396.87	0.014
397.08	0.014
397.28	0.014
397.49	0.014
397.69	0.014
397.90	0.014
398.11	0.014
398.31	0.014
398.52	0.014
398.73	0.014
398.93	0.014
399.14	0.014
399.34	0.014
399.55	0.014
399.76	0.014
399.96	0.014
400.17	0.015
400.37	0.015
400.58	0.015
400.79	0.015
400.99	0.015
401.20	0.015
401.41	0.015
401.61	0.015
401.82	0.015
402.02	0.015
402.23	0.015
402.44	0.015
402.64	0.014
402.85	0.014
403.05	0.014
403.26	0.014
403.47	0.014
403.67	0.014
403.88	0.014
404.08	0.014
404.29	0.014
404.50	0.014
404.70	0.014
404.91	0.014
405.11	0.014
405.32	0.014
405.52	0.014
405.73	0.014
405.94	0.014
406.14	0.014
406.35	0.014
406.55	0.014
406.76	0.014
406.97	0.014
407.17	0.014
407.38	0.014
407.58	0.014
407.79	0.014
407.99	0.014
408.20	0.014
408.41	0.014
408.61	0.014
408.82	0.014
409.02	0.014
409.23	0.014
409.43	0.014
409.64	0.014
409.84	0.014
410.05	0.014
410.26	0.014
410.46	0.014
410.67	0.014
410.87	0.014
411.08	0.014
411.28	0.014
411.49	0.014
411.69	0.014
411.90	0.014
412.11	0.014
412.31	0.014
412.52	0.014
412.72	0.014
412.93	0.013
413.13	0.013
413.34	0.014
413.54	0.014
413.75	0.014
413.95	0.014
414.16	0.014
414.37	0.014
414.57	0.014
414.78	0.014
414.98	0.014
415.19	0.014
415.39	0.014
415.60	0.014
415.80	0.014
416.01	0.014
416.21	0.014
416.42	0.014
416.62	0.014
416.83	0.014
417.03	0.014
417.24	0.013
417.44	0.013
417.65	0.013
417.86	0.013
418.06	0.013
418.27	0.013
418.47	0.013
418.68	0.013
418.88	0.013
419.09	0.013
419.29	0.013
419.50	0.013
419.70	0.013
419.91	0.013
420.11	0.013
420.32	0.013
420.52	0.013
420.73	0.013
420.93	0.013
421.14	0.013
421.34	0.013
421.55	0.013
421.75	0.013
421.96	0.013
422.16	0.013
422.37	0.013
422.57	0.013
422.78	0.013
422.98	0.013
423.19	0.013
423.39	0.013
423.60	0.013
423.80	0.014
424.01	0.014
424.21	0.014
424.42	0.014
424.62	0.014
424.83	0.014
425.03	0.014
425.23	0.014
425.44	0.014
425.64	0.014
425.85	0.013
426.05	0.013
426.26	0.013
426.46	0.013
426.67	0.013
426.87	0.013
427.08	0.013
427.28	0.013
427.49	0.013
427.69	0.013
427.90	0.013
428.10	0.013
428.31	0.013
428.51	0.013
428.71	0.013
428.92	0.013
429.12	0.013
429.33	0.013
429.53	0.013
429.74	0.013
429.94	0.013
430.15	0.013
430.35	0.013
430.56	0.013
430.76	0.013
430.96	0.013
431.17	0.013
431.37	0.013
431.58	0.014
431.78	0.014
431.99	0.014
432.19	0.014
432.40	0.014
432.60	0.014
432.80	0.014
433.01	0.014
433.21	0.014
433.42	0.013
433.62	0.013
433.83	0.013
434.03	0.013
434.23	0.013
434.44	0.013
434.64	0.013
434.85	0.013
435.05	0.013
435.26	0.013
435.46	0.013
435.66	0.013
435.87	0.013
436.07	0.013
436.28	0.013
436.48	0.013
436.69	0.013
436.89	0.013
437.09	0.013
437.30	0.013
437.50	0.013
437.71	0.013
437.91	0.013
438.11	0.013
438.32	0.013
438.52	0.013
438.73	0.013
438.93	0.013
439.13	0.013
439.34	0.013
439.54	0.013
439.75	0.013
439.95	0.013
440.15	0.013
440.36	0.013
440.56	0.013
440.77	0.013
440.97	0.013
441.17	0.013
441.38	0.013
441.58	0.013
441.79	0.013
441.99	0.013
442.19	0.013
442.40	0.013
442.60	0.013
442.81	0.013
443.01	0.013
443.21	0.013
443.42	0.013
443.62	0.013
443.82	0.013
444.03	0.013
444.23	0.013
444.44	0.013
444.64	0.013
444.84	0.013
445.05	0.013
445.25	0.013
445.45	0.013
445.66	0.013
445.86	0.013
446.06	0.013
446.27	0.013
446.47	0.013
446.68	0.013
446.88	0.013
447.08	0.013
447.29	0.013
447.49	0.013
447.69	0.013
447.90	0.013
448.10	0.013
448.30	0.013
448.51	0.013
448.71	0.013
448.91	0.013
449.12	0.013
449.32	0.013
449.52	0.013
449.73	0.013
449.93	0.013
450.14	0.013
450.34	0.013
450.54	0.013
450.75	0.013
450.95	0.013
451.15	0.013
451.36	0.013
451.56	0.013
451.76	0.013
451.97	0.013
452.17	0.013
452.37	0.013
452.58	0.013
452.78	0.013
452.98	0.013
453.19	0.013
453.39	0.013
453.59	0.013
453.79	0.013
454.00	0.013
454.20	0.013
454.40	0.013
454.61	0.013
454.81	0.013
455.01	0.012
455.22	0.012
455.42	0.012
455.62	0.012
455.83	0.012
456.03	0.012
456.23	0.012
456.44	0.012
456.64	0.013
456.84	0.013
457.04	0.013
457.25	0.013
457.45	0.013
457.65	0.013
457.86	0.013
458.06	0.013
458.26	0.013
458.47	0.012
458.67	0.012
458.87	0.012
459.07	0.012
459.28	0.012
459.48	0.012
459.68	0.012
459.89	0.012
460.09	0.012
460.29	0.012
460.49	0.012
460.70	0.012
460.90	0.013
461.10	0.013
461.31	0.013
461.51	0.013
461.71	0.013
461.91	0.013
462.12	0.013
462.32	0.012
462.52	0.013
462.72	0.013
462.93	0.012
463.13	0.012
463.33	0.012
463.53	0.012
463.74	0.012
463.94	0.012
464.14	0.012
464.35	0.012
464.55	0.012
464.75	0.012
464.95	0.012
465.16	0.012
465.36	0.012
465.56	0.012
465.76	0.012
465.97	0.012
466.17	0.012
466.37	0.012
466.57	0.012
466.78	0.012
466.98	0.012
467.18	0.013
467.38	0.013
467.59	0.013
467.79	0.013
467.99	0.013
468.19	0.013
468.39	0.013
468.60	0.013
468.80	0.013
469.00	0.013
469.20	0.013
469.41	0.013
469.61	0.012
469.81	0.012
470.01	0.012
470.22	0.012
470.42	0.012
470.62	0.012
470.82	0.012
471.02	0.012
471.23	0.012
471.43	0.012
471.63	0.012
471.83	0.012
472.04	0.012
472.24	0.012
472.44	0.012
472.64	0.012
472.84	0.011
473.05	0.011
473.25	0.011
473.45	0.011
473.65	0.011
473.85	0.011
474.06	0.011
474.26	0.011
474.46	0.011
474.66	0.011
474.86	0.012
475.07	0.012
475.27	0.012
475.47	0.012
475.67	0.012
475.87	0.012
476.08	0.012
476.28	0.012
476.48	0.012
476.68	0.012
476.88	0.012
477.09	0.012
477.29	0.012
477.49	0.012
477.69	0.012
477.89	0.012
478.09	0.012
478.30	0.011
478.50	0.011
478.70	0.011
478.90	0.011
479.10	0.011
479.31	0.011
479.51	0.011
479.71	0.011
479.91	0.011
480.11	0.011
480.31	0.011
480.52	0.011
480.72	0.011
480.92	0.011
481.12	0.011
481.32	0.011
481.52	0.011
481.72	0.011
481.93	0.011
482.13	0.011
482.33	0.011
482.53	0.011
482.73	0.011
482.93	0.011
483.14	0.011
483.34	0.011
483.54	0.011
483.74	0.011
483.94	0.011
484.14	0.011
484.34	0.011
484.55	0.011
484.75	0.011
484.95	0.011
485.15	0.011
485.35	0.011
485.55	0.012
485.75	0.012
485.96	0.012
486.16	0.012
486.36	0.012
486.56	0.012
486.76	0.012
486.96	0.012
487.16	0.012
487.36	0.012
487.57	0.012
487.77	0.012
487.97	0.012
488.17	0.012
488.37	0.012
488.57	0.012
488.77	0.012
488.97	0.013
489.18	0.012
489.38	0.012
489.58	0.012
489.78	0.012
489.98	0.012
490.18	0.012
490.38	0.012
490.58	0.012
490.78	0.012
490.98	0.012
491.19	0.012
491.39	0.012
491.59	0.012
491.79	0.012
491.99	0.012
492.19	0.012
492.39	0.012
492.59	0.012
492.79	0.012
492.99	0.012
493.20	0.012
493.40	0.012
493.60	0.012
493.80	0.012
494.00	0.012
494.20	0.012
494.40	0.012
494.60	0.012
494.80	0.012
495.00	0.012
495.20	0.012
495.40	0.012
495.61	0.012
495.81	0.012
496.01	0.012
496.21	0.012
496.41	0.012
496.61	0.012
496.81	0.012
497.01	0.012
497.21	0.012
497.41	0.013
497.61	0.013
497.81	0.013
498.01	0.013
498.21	0.013
498.41	0.013
498.61	0.013
498.82	0.013
499.02	0.013
499.22	0.013
499.42	0.013
499.62	0.013
499.82	0.012
500.02	0.012
500.22	0.012
500.42	0.012
500.62	0.012
500.82	0.012
501.02	0.012
501.22	0.012
501.42	0.012
501.62	0.012
501.82	0.012
502.02	0.012
502.22	0.012
502.42	0.012
502.62	0.012
502.82	0.012
503.02	0.012
503.22	0.012
503.42	0.012
503.63	0.012
503.83	0.012
504.03	0.012
504.23	0.012
504.43	0.013
504.63	0.013
504.83	0.013
505.03	0.013
505.23	0.013
505.43	0.013
505.63	0.013
505.83	0.013
506.03	0.013
506.23	0.013
506.43	0.013
506.63	0.013
506.83	0.013
507.03	0.013
507.23	0.013
507.43	0.013
507.63	0.013
507.83	0.013
508.03	0.012
508.23	0.013
508.43	0.013
508.63	0.012
508.83	0.013
509.03	0.013
509.23	0.013
509.43	0.013
509.63	0.012
509.83	0.013
510.03	0.012
510.23	0.012
510.43	0.012
510.63	0.012
510.83	0.012
511.03	0.012
511.23	0.012
511.43	0.012
511.63	0.012
511.83	0.012
512.03	0.012
512.22	0.013
512.42	0.013
512.62	0.013
512.82	0.013
513.02	0.013
513.22	0.013
513.42	0.013
513.62	0.013
513.82	0.013
514.02	0.013
514.22	0.013
514.42	0.013
514.62	0.013
514.82	0.013
515.02	0.013
515.22	0.013
515.42	0.013
515.62	0.013
515.82	0.013
516.02	0.012
516.22	0.012
516.42	0.012
516.62	0.012
516.82	0.012
517.01	0.013
517.21	0.012
517.41	0.013
517.61	0.013
517.81	0.013
518.01	0.013
518.21	0.013
518.41	0.013
518.61	0.013
518.81	0.013
519.01	0.013
519.21	0.013
519.41	0.013
519.61	0.013
519.81	0.013
520.00	0.013
520.20	0.013
520.40	0.013
520.60	0.013
520.80	0.013
521.00	0.013
521.20	0.013
521.40	0.013
521.60	0.013
521.80	0.013
522.00	0.013
522.20	0.013
522.39	0.013
522.59	0.012
522.79	0.012
522.99	0.012
523.19	0.013
523.39	0.012
523.59	0.013
523.79	0.013
523.99	0.013
524.19	0.013
524.38	0.013
524.58	0.013
524.78	0.013
524.98	0.013
525.18	0.013
525.38	0.013
525.58	0.013
525.78	0.013
525.98	0.013
526.18	0.013
526.37	0.013
526.57	0.012
526.77	0.012
526.97	0.012
527.17	0.012
527.37	0.012
527.57	0.012
527.77	0.012
527.96	0.012
528.16	0.013
528.36	0.013
528.56	0.013
528.76	0.013
528.96	0.013
529.16	0.013
529.36	0.013
529.55	0.013
529.75	0.013
529.95	0.013
530.15	0.013
530.35	0.013
530.55	0.013
530.75	0.013
530.94	0.013
531.14	0.013
531.34	0.013
531.54	0.013
531.74	0.013
531.94	0.013
532.13	0.013
532.33	0.013
532.53	0.013
532.73	0.013
532.93	0.012
533.13	0.013
533.33	0.013
533.52	0.013
533.72	0.013
533.92	0.013
534.12	0.013
534.32	0.013
534.52	0.013
534.71	0.013
534.91	0.013
535.11	0.013
535.31	0.013
535.51	0.013
535.71	0.013
535.90	0.013
536.10	0.013
536.30	0.013
536.50	0.013
536.70	0.013
536.89	0.013
537.09	0.013
537.29	0.013
537.49	0.013
537.69	0.013
537.89	0.013
538.08	0.013
538.28	0.013
538.48	0.013
538.68	0.013
538.88	0.013
539.07	0.013
539.27	0.013
539.47	0.013
539.67	0.013
539.87	0.013
540.06	0.013
540.26	0.013
540.46	0.013
540.66	0.013
540.86	0.013
541.05	0.013
541.25	0.013
541.45	0.013
541.65	0.013
541.84	0.013
542.04	0.013
542.24	0.013
542.44	0.013
542.64	0.013
542.83	0.013
543.03	0.013
543.23	0.013
543.43	0.013
543.62	0.013
543.82	0.013
544.02	0.013
544.22	0.013
544.42	0.013
544.61	0.013
544.81	0.012
545.01	0.012
545.21	0.012
545.40	0.012
545.60	0.012
545.80	0.012
546.00	0.012
546.19	0.013
546.39	0.013
546.59	0.013
546.79	0.013
546.98	0.013
547.18	0.013
547.38	0.013
547.58	0.013
547.77	0.013
547.97	0.013
548.17	0.013
548.37	0.013
548.56	0.013
548.76	0.013
548.96	0.013
549.16	0.013
549.35	0.013
549.55	0.013
549.75	0.013
549.95	0.013
550.14	0.013
550.34	0.013
550.54	0.013
550.73	0.013
550.93	0.013
551.13	0.013
551.33	0.013
551.52	0.013
551.72	0.013
551.92	0.013
552.12	0.012
552.31	0.012
552.51	0.013
552.71	0.013
552.90	0.013
553.10	0.012
553.30	0.013
553.50	0.013
553.69	0.013
553.89	0.013
554.09	0.013
554.28	0.013
554.48	0.013
554.68	0.013
554.87	0.013
555.07	0.013
555.27	0.014
555.47	0.013
555.66	0.013
555.86	0.014
556.06	0.014
556.25	0.014
556.45	0.014
556.65	0.014
556.84	0.014
557.04	0.014
557.24	0.014
557.43	0.014
557.63	0.014
557.83	0.014
558.02	0.014
558.22	0.013
558.42	0.013
558.61	0.013
558.81	0.013
559.01	0.013
559.21	0.013
559.40	0.012
559.60	0.012
559.80	0.012
559.99	0.012
560.19	0.012
560.39	0.012
560.58	0.012
560.78	0.012
560.97	0.012
561.17	0.013
561.37	0.013
561.56	0.013
561.76	0.013
561.96	0.013
562.15	0.013
562.35	0.013
562.55	0.013
562.74	0.013
562.94	0.013
563.14	0.013
563.33	0.013
563.53	0.013
563.73	0.013
563.92	0.013
564.12	0.013
564.31	0.013
564.51	0.013
564.71	0.013
564.90	0.013
565.10	0.013
565.30	0.013
565.49	0.013
565.69	0.013
565.89	0.013
566.08	0.013
566.28	0.013
566.47	0.013
566.67	0.012
566.87	0.012
567.06	0.012
567.26	0.012
567.46	0.012
567.65	0.012
567.85	0.012
568.04	0.011
568.24	0.011
568.44	0.011
568.63	0.011
568.83	0.011
569.02	0.011
569.22	0.011
569.42	0.011
569.61	0.011
569.81	0.011
570.00	0.011
570.20	0.011
570.40	0.011
570.59	0.011
570.79	0.011
570.98	0.011
571.18	0.011
571.38	0.011
571.57	0.011
571.77	0.011
571.96	0.011
572.16	0.011
572.35	0.011
572.55	0.012
572.75	0.012
572.94	0.012
573.14	0.012
573.33	0.012
573.53	0.012
573.73	0.012
573.92	0.012
574.12	0.013
574.31	0.013
574.51	0.012
574.70	0.011
574.90	0.010
575.09	0.009
575.29	0.007
575.49	0.006
575.68	0.005
575.88	0.004
576.07	0.003
576.27	0.002
576.46	0.001
576.66	-0.000
576.86	-0.000
577.05	-0.000
577.25	-0.000
577.44	-0.000
577.64	-0.000
577.83	-0.000
578.03	-0.000
578.22	-0.000
578.42	-0.000
578.61	-0.000
578.81	-0.000
579.00	-0.000
579.20	-0.000
579.40	-0.000
579.59	-0.000
579.79	-0.000
579.98	-0.000
580.18	-0.000
580.37	-0.000
580.57	-0.000
580.76	-0.000
580.96	-0.000
581.15	-0.000
581.35	-0.000
581.54	-0.000
581.74	-0.000
581.93	-0.000
582.13	-0.000
582.32	-0.000
582.52	-0.000
582.71	-0.000
582.91	-0.000
583.10	-0.000
583.30	-0.000
583.49	-0.000
583.69	-0.000
583.88	-0.000
584.08	0.000
584.27	0.000
584.47	0.000
584.66	0.000
584.86	0.000
585.05	0.000
585.25	0.000
585.44	0.000
585.64	0.000
585.83	0.000
586.03	0.000
586.22	0.001
586.42	0.002
586.61	0.003
586.81	0.005
587.00	0.006
587.20	0.007
587.39	0.009
587.59	0.010
587.78	0.011
587.98	0.012
588.17	0.014
588.37	0.014
588.56	0.014
588.76	0.014
588.95	0.014
589.15	0.014
589.34	0.014
589.54	0.014
589.73	0.013
589.92	0.013
590.12	0.013
590.31	0.013
590.51	0.012
590.70	0.012
590.90	0.012
591.09	0.011
591.29	0.011
591.48	0.011
591.68	0.011
591.87	0.012
592.06	0.012
592.26	0.012
592.45	0.012
592.65	0.012
592.84	0.012
593.04	0.012
593.23	0.012
593.43	0.012
593.62	0.013
593.81	0.013
594.01	0.013
594.20	0.013
594.40	0.013
594.59	0.014
594.79	0.014
594.98	0.014
595.17	0.014
595.37	0.014
595.56	0.013
595.76	0.013
595.95	0.013
596.14	0.012
596.34	0.012
596.53	0.012
596.73	0.011
596.92	0.011
597.12	0.011
597.31	0.010
597.50	0.010
597.70	0.010
597.89	0.011
598.09	0.011
598.28	0.011
598.47	0.011
598.67	0.011
598.86	0.011
599.06	0.011
599.25	0.012
599.44	0.012
599.64	0.012
599.83	0.012
600.03	0.013
600.22	0.013
600.41	0.013
600.61	0.013
600.80	0.014
601.00	0.014
601.19	0.014
601.38	0.014
601.58	0.014
601.77	0.014
601.96	0.014
602.16	0.013
602.35	0.013
602.55	0.013
602.74	0.013
602.93	0.012
603.13	0.012
603.32	0.012
603.51	0.012
603.71	0.011
603.90	0.011
604.09	0.011
604.29	0.011
604.48	0.011
604.68	0.011
604.87	0.011
605.06	0.011
605.26	0.011
605.45	0.011
605.64	0.011
605.84	0.011
606.03	0.011
606.22	0.012
606.42	0.012
606.61	0.012
606.80	0.012
607.00	0.012
607.19	0.013
607.38	0.013
607.58	0.013
607.77	0.013
607.96	0.013
608.16	0.014
608.35	0.014
608.54	0.014
608.74	0.014
608.93	0.014
609.12	0.014
609.32	0.014
609.51	0.014
609.70	0.014
609.90	0.014
610.09	0.014
610.28	0.014
610.48	0.014
610.67	0.014
610.86	0.013
611.06	0.013
611.25	0.013
611.44	0.013
611.64	0.012
611.83	0.012
612.02	0.012
612.21	0.012
612.41	0.012
612.60	0.012
612.79	0.012
612.99	0.012
613.18	0.012
613.37	0.012
613.57	0.012
613.76	0.012
613.95	0.012
614.14	0.013
614.34	0.013
614.53	0.013
614.72	0.013
614.92	0.013
615.11	0.013
615.30	0.013
615.49	0.013
615.69	0.013
615.88	0.014
616.07	0.014
616.26	0.014
616.46	0.014
616.65	0.014
616.84	0.014
617.04	0.014
617.23	0.014
617.42	0.015
617.61	0.015
617.81	0.015
618.00	0.015
618.19	0.015
618.38	0.014
618.58	0.014
618.77	0.014
618.96	0.014
619.15	0.014
619.35	0.014
619.54	0.014
619.73	0.014
619.92	0.013
620.12	0.013
620.31	0.013
620.50	0.013
620.69	0.013
620.89	0.013
621.08	0.013
621.27	0.013
621.46	0.013
621.66	0.013
621.85	0.013
622.04	0.013
622.23	0.013
622.43	0.013
622.62	0.013
622.81	0.013
623.00	0.013
623.19	0.013
623.39	0.013
623.58	0.013
623.77	0.013
623.96	0.013
624.16	0.013
624.35	0.013
624.54	0.013
624.73	0.013
624.92	0.013
625.12	0.014
625.31	0.014
625.50	0.014
625.69	0.014
625.88	0.014
626.08	0.014
626.27	0.014
626.46	0.014
626.65	0.015
626.84	0.015
627.04	0.015
627.23	0.015
627.42	0.015
627.61	0.015
627.80	0.015
628.00	0.015
628.19	0.015
628.38	0.015
628.57	0.015
628.76	0.015
628.96	0.015
629.15	0.015
629.34	0.015
629.53	0.015
629.72	0.015
629.91	0.015
630.11	0.015
630.30	0.015
630.49	0.015
630.68	0.015
630.87	0.015
631.06	0.015
631.26	0.015
631.45	0.016
631.64	0.016
631.83	0.016
632.02	0.016
632.21	0.015
632.41	0.015
632.60	0.015
632.79	0.015
632.98	0.015
633.17	0.015
633.36	0.015
633.55	0.015
633.75	0.015
633.94	0.015
634.13	0.015
634.32	0.015
634.51	0.015
634.70	0.015
634.89	0.015
635.09	0.015
635.28	0.015
635.47	0.015
635.66	0.015
635.85	0.015
636.04	0.015
636.23	0.015
636.43	0.015
636.62	0.015
636.81	0.015
637.00	0.015
637.19	0.015
637.38	0.015
637.57	0.015
637.76	0.016
637.95	0.015
638.15	0.015
638.34	0.016
638.53	0.016
638.72	0.016
638.91	0.016
639.10	0.016
639.29	0.016
639.48	0.016
639.67	0.016
639.87	0.016
640.06	0.016
640.25	0.016
640.44	0.015
640.63	0.015
640.82	0.015
641.01	0.015
641.20	0.015
641.39	0.015
641.58	0.016
641.78	0.016
641.97	0.015
642.16	0.016
642.35	0.016
642.54	0.016
642.73	0.016
642.92	0.016
643.11	0.016
643.30	0.016
643.49	0.016
643.68	0.016
643.87	0.016
644.06	0.016
644.25	0.016
644.45	0.016
644.64	0.016
644.83	0.016
645.02	0.016
645.21	0.016
645.40	0.016
645.59	0.015
645.78	0.015
645.97	0.015
646.16	0.015
646.35	0.015
646.54	0.015
646.73	0.015
646.92	0.015
647.11	0.014
647.30	0.014
647.49	0.014
647.68	0.014
647.88	0.014
648.07	0.014
648.26	0.014
648.45	0.014
648.64	0.014
648.83	0.014
649.02	0.014
649.21	0.014
649.40	0.015
649.59	0.015
649.78	0.015
649.97	0.015
650.16	0.015
650.35	0.015
650.54	0.015
650.73	0.016
650.92	0.016
651.11	0.016
651.30	0.016
651.49	0.016
651.68	0.016
651.87	0.016
652.06	0.016
652.25	0.016
652.44	0.015
652.63	0.014
652.82	0.012
653.01	0.011
653.20	0.010
653.39	0.010
653.58	0.009
653.77	0.009
653.96	0.009
654.15	0.008
654.34	0.008
654.53	0.008
654.72	0.009
654.91	0.010
655.10	0.011
655.29	0.011
655.48	0.011
655.67	0.012
655.86	0.012
656.05	0.012
656.24	0.012
656.43	0.012
656.62	0.012
656.81	0.013
657.00	0.014
657.19	0.015
657.38	0.016
657.57	0.017
657.76	0.017
657.95	0.018
658.14	0.018
658.33	0.019
658.51	0.020
658.70	0.020
658.89	0.020
659.08	0.019
659.27	0.018
659.46	0.017
659.65	0.017
659.84	0.017
660.03	0.016
660.22	0.016
660.41	0.016
660.60	0.016
660.79	0.016
660.98	0.016
661.17	0.016
661.36	0.016
661.55	0.016
661.74	0.015
661.92	0.015
662.11	0.015
662.30	0.015
662.49	0.015
662.68	0.015
662.87	0.015
663.06	0.015
663.25	0.015
663.44	0.015
663.63	0.015
663.82	0.015
664.01	0.016
664.20	0.015
664.38	0.015
664.57	0.015
664.76	0.015
664.95	0.016
665.14	0.016
665.33	0.016
665.52	0.016
665.71	0.016
665.90	0.016
666.09	0.016
666.28	0.016
666.46	0.016
666.65	0.016
666.84	0.016
667.03	0.016
667.22	0.016
667.41	0.016
667.60	0.015
667.79	0.015
667.98	0.016
668.16	0.016
668.35	0.016
668.54	0.015
668.73	0.015
668.92	0.015
669.11	0.015
669.30	0.015
669.49	0.015
669.67	0.015
669.86	0.015
670.05	0.015
670.24	0.015
670.43	0.014
670.62	0.014
670.81	0.014
671.00	0.014
671.18	0.014
671.37	0.014
671.56	0.014
671.75	0.014
671.94	0.014
672.13	0.014
672.32	0.014
672.50	0.015
672.69	0.015
672.88	0.015
673.07	0.015
673.26	0.015
673.45	0.015
673.63	0.016
673.82	0.016
674.01	0.016
674.20	0.016
674.39	0.016
674.58	0.016
674.76	0.016
674.95	0.016
675.14	0.016
675.33	0.016
675.52	0.016
675.71	0.015
675.89	0.015
676.08	0.015
676.27	0.015
676.46	0.015
676.65	0.015
676.84	0.015
677.02	0.015
677.21	0.015
677.40	0.015
677.59	0.015
677.78	0.015
677.96	0.015
678.15	0.015
678.34	0.015
678.53	0.015
678.72	0.015
678.90	0.015
679.09	0.015
679.28	0.015
679.47	0.015
679.66	0.015
679.84	0.015
680.03	0.015
680.22	0.015
680.41	0.015
680.60	0.015
680.78	0.015
680.97	0.015
681.16	0.015
681.35	0.015
681.53	0.015
681.72	0.015
681.91	0.015
682.10	0.014
682.29	0.014
682.47	0.014
682.66	0.014
682.85	0.014
683.04	0.014
683.22	0.014
683.41	0.014
683.60	0.014
683.79	0.014
683.97	0.014
684.16	0.014
684.35	0.014
684.54	0.015
684.72	0.015
684.91	0.015
685.10	0.015
685.29	0.014
685.47	0.015
685.66	0.015
685.85	0.015
686.04	0.015
686.22	0.015
686.41	0.015
686.60	0.015
686.79	0.015
686.97	0.015
687.16	0.015
687.35	0.015
687.54	0.015
687.72	0.015
687.91	0.015
688.10	0.015
688.29	0.015
688.47	0.015
688.66	0.015
688.85	0.015
689.03	0.015
689.22	0.015
689.41	0.015
689.60	0.015
689.78	0.015
689.97	0.015
690.16	0.015
690.34	0.015
690.53	0.015
690.72	0.015
690.91	0.015
691.09	0.015
691.28	0.015
691.47	0.015
691.65	0.015
691.84	0.015
692.03	0.015
692.21	0.015
692.40	0.015
692.59	0.015
692.77	0.015
692.96	0.015
693.15	0.015
693.34	0.015
693.52	0.016
693.71	0.016
693.90	0.016
694.08	0.016
694.27	0.016
694.46	0.015
694.64	0.015
694.83	0.015
695.02	0.015
695.20	0.015
695.39	0.015
695.58	0.015
695.76	0.015
695.95	0.015
696.14	0.015
696.32	0.015
696.51	0.015
696.70	0.015
696.88	0.014
697.07	0.015
697.26	0.015
697.44	0.015
697.63	0.015
697.81	0.015
698.00	0.015
698.19	0.015
698.37	0.015
698.56	0.015
698.75	0.015
698.93	0.016
699.12	0.016
699.31	0.016
699.49	0.016
699.68	0.016
699.87	0.015
700.05	0.015
700.24	0.015
700.42	0.015
700.61	0.015
700.80	0.015
700.98	0.015
701.17	0.015
701.36	0.015
701.54	0.015
701.73	0.015
701.91	0.015
702.10	0.015
702.29	0.016
702.47	0.016
702.66	0.016
702.84	0.016
703.03	0.016
703.22	0.016
703.40	0.016
703.59	0.016
703.77	0.016
703.96	0.016
704.15	0.016
704.33	0.016
704.52	0.016
704.70	0.016
704.89	0.015
705.08	0.015
705.26	0.015
705.45	0.015
705.63	0.015
705.82	0.015
706.00	0.015
706.19	0.014
706.38	0.014
706.56	0.014
706.75	0.014
706.93	0.014
707.12	0.014
707.30	0.014
707.49	0.014
707.68	0.014
707.86	0.014
708.05	0.014
708.23	0.014
708.42	0.015
708.60	0.015
708.79	0.015
708.98	0.015
709.16	0.015
709.35	0.015
709.53	0.015
709.72	0.016
709.90	0.016
710.09	0.016
710.27	0.016
710.46	0.016
710.64	0.016
710.83	0.016
711.02	0.016
711.20	0.016
711.39	0.015
711.57	0.015
711.76	0.015
711.94	0.015
712.13	0.015
712.31	0.015
712.50	0.015
712.68	0.015
712.87	0.015
713.05	0.015
713.24	0.015
713.42	0.015
713.61	0.015
713.79	0.015
713.98	0.015
714.16	0.015
714.35	0.015
714.54	0.015
714.72	0.015
714.91	0.015
715.09	0.015
715.28	0.015
715.46	0.015
715.65	0.015
715.83	0.015
716.02	0.015
716.20	0.015
716.39	0.015
716.57	0.015
716.76	0.015
716.94	0.015
717.12	0.015
717.31	0.015
717.49	0.014
717.68	0.014
717.86	0.014
718.05	0.014
718.23	0.014
718.42	0.014
718.60	0.014
718.79	0.014
718.97	0.014
719.16	0.015
719.34	0.015
719.53	0.015
719.71	0.015
719.90	0.015
720.08	0.015
720.27	0.015
720.45	0.015
720.63	0.015
720.82	0.016
721.00	0.016
721.19	0.015
721.37	0.015
721.56	0.016
721.74	0.016
721.93	0.016
722.11	0.016
722.30	0.016
722.48	0.016
722.66	0.015
722.85	0.016
723.03	0.015
723.22	0.015
723.40	0.015
723.59	0.015
723.77	0.015
723.95	0.015
724.14	0.015
724.32	0.015
724.51	0.015
724.69	0.015
724.88	0.015
725.06	0.015
725.24	0.015
725.43	0.014
725.61	0.014
725.80	0.013
725.98	0.013
726.16	0.013
726.35	0.013
726.53	0.013
726.72	0.013
726.90	0.013
727.09	0.013
727.27	0.013
727.45	0.013
727.64	0.013
727.82	0.013
728.01	0.014
728.19	0.014
728.37	0.014
728.56	0.014
728.74	0.014
728.92	0.014
729.11	0.014
729.29	0.015
729.48	0.015
729.66	0.014
729.84	0.014
730.03	0.014
730.21	0.013
730.40	0.013
730.58	0.013
730.76	0.013
730.95	0.013
731.13	0.013
731.31	0.012
731.50	0.012
731.68	0.013
731.86	0.013
732.05	0.013
732.23	0.013
732.42	0.013
732.60	0.013
732.78	0.013
732.97	0.013
733.15	0.013
733.33	0.013
733.52	0.013
733.70	0.012
733.88	0.012
734.07	0.012
734.25	0.012
734.43	0.012
734.62	0.012
734.80	0.012
734.98	0.011
735.17	0.011
735.35	0.011
735.53	0.011
735.72	0.011
735.90	0.011
736.08	0.011
736.27	0.011
736.45	0.010
736.63	0.010
736.82	0.010
737.00	0.010
737.18	0.011
737.37	0.011
737.55	0.011
737.73	0.011
737.92	0.010
738.10	0.010
738.28	0.011
738.46	0.011
738.65	0.011
738.83	0.011
739.01	0.011
739.20	0.011
739.38	0.011
739.56	0.011
739.75	0.011
739.93	0.011
740.11	0.011
740.29	0.011
740.48	0.011
740.66	0.011
740.84	0.011
741.03	0.011
741.21	0.011
741.39	0.012
741.57	0.012
741.76	0.012
741.94	0.011
742.12	0.011
742.31	0.010
742.49	0.010
742.67	0.010
742.85	0.010
743.04	0.010
743.22	0.010
743.40	0.009
743.58	0.009
743.77	0.010
743.95	0.010
744.13	0.011
744.31	0.011
744.50	0.011
744.68	0.011
744.86	0.012
745.04	0.012
745.23	0.012
745.41	0.012
745.59	0.012
745.77	0.012
745.96	0.012
746.14	0.012
746.32	0.011
746.50	0.012
746.69	0.012
746.87	0.011
747.05	0.011
747.23	0.011
747.42	0.011
747.60	0.011
747.78	0.012
747.96	0.012
748.14	0.013
748.33	0.014
748.51	0.014
748.69	0.013
748.87	0.014
749.06	0.014
749.24	0.015
749.42	0.014
749.60	0.015
749.78	0.014
749.97	0.015
750.15	0.014
750.33	0.014
750.51	0.014
750.69	0.014
750.88	0.013
751.06	0.013
751.24	0.013
751.42	0.012
751.60	0.011
751.79	0.012
751.97	0.012
752.15	0.011
752.33	0.011
752.51	0.010
752.69	0.011
752.88	0.011
753.06	0.012
753.24	0.012
753.42	0.013
753.60	0.013
753.78	0.013
753.97	0.012
754.15	0.012
754.33	0.013
754.51	0.012
754.69	0.012
754.87	0.012
755.06	0.011
755.24	0.010
755.42	0.010
755.60	0.010
755.78	0.011
755.96	0.011
756.15	0.011
756.33	0.010
756.51	0.011
756.69	0.011
756.87	0.011
757.05	0.011
757.23	0.012
757.42	0.012
757.60	0.012
757.78	0.012
757.96	0.012
758.14	0.012
758.32	0.012
758.50	0.012
758.69	0.013
758.87	0.012
759.05	0.013
759.23	0.013
759.41	0.013
759.59	0.013
759.77	0.013
759.95	0.013
760.13	0.013
760.32	0.013
760.50	0.014
760.68	0.014
760.86	0.014
761.04	0.014
761.22	0.015
761.40	0.014
761.58	0.014
761.76	0.014
761.95	0.014
762.13	0.014
762.31	0.014
762.49	0.014
762.67	0.014
762.85	0.013
763.03	0.013
763.21	0.013
763.39	0.013
763.57	0.014
763.75	0.013
763.94	0.013
764.12	0.013
764.30	0.012
764.48	0.013
764.66	0.012
764.84	0.012
765.02	0.012
765.20	0.012
765.38	0.012
765.56	0.013
765.74	0.012
765.92	0.012
766.10	0.012
766.28	0.012
766.46	0.012
766.65	0.013
766.83	0.013
767.01	0.014
767.19	0.014
767.37	0.013
767.55	0.014
767.73	0.014
767.91	0.014
768.09	0.014
768.27	0.013
768.45	0.013
768.63	0.013
768.81	0.012
768.99	0.012
769.17	0.012
769.35	0.013
769.53	0.013
769.71	0.013
769.89	0.013
770.07	0.013
770.25	0.013
770.43	0.014
770.61	0.014
770.79	0.015
770.97	0.015
771.15	0.015
771.33	0.015
771.51	0.015
771.69	0.015
771.87	0.014
772.05	0.015
772.24	0.015
772.42	0.015
772.60	0.015
772.78	0.014
772.96	0.015
773.14	0.016
773.32	0.015
773.49	0.015
773.67	0.016
773.85	0.016
774.03	0.016
774.21	0.016
774.39	0.016
774.57	0.016
774.75	0.015
774.93	0.015
775.11	0.015
775.29	0.015
775.47	0.015
775.65	0.015
775.83	0.015
776.01	0.014
776.19	0.015
776.37	0.015
776.55	0.014
776.73	0.014
776.91	0.014
777.09	0.014
777.27	0.014
777.45	0.014
777.63	0.015
777.81	0.015
777.99	0.015
778.17	0.015
778.35	0.015
778.53	0.015
778.71	0.015
778.89	0.015
779.07	0.014
779.24	0.014
779.42	0.014
779.60	0.014
779.78	0.013
779.96	0.013
780.14	0.013
780.32	0.012
780.50	0.013
780.68	0.013
780.86	0.013
781.04	0.013
781.22	0.014
781.40	0.014
781.58	0.014
781.75	0.014
781.93	0.015
782.11	0.016
782.29	0.016
782.47	0.017
782.65	0.017
782.83	0.017
783.01	0.017
783.19	0.017
783.37	0.017
783.55	0.016
783.72	0.017
783.90	0.017
784.08	0.017
784.26	0.017
784.44	0.016
784.62	0.016
784.80	0.016
784.98	0.016
785.16	0.016
785.33	0.016
785.51	0.016
785.69	0.016
785.87	0.016
786.05	0.015
786.23	0.015
786.41	0.015
786.59	0.015
786.77	0.015
786.94	0.015
787.12	0.015
787.30	0.015
787.48	0.014
787.66	0.015
787.84	0.015
788.02	0.015
788.19	0.015
788.37	0.015
788.55	0.015
788.73	0.015
788.91	0.015
789.09	0.015
789.27	0.015
789.44	0.015
789.62	0.015
789.80	0.015
789.98	0.015
790.16	0.014
790.34	0.014
790.51	0.015
790.69	0.015
790.87	0.015
791.05	0.015
791.23	0.015
791.41	0.015
791.58	0.015
791.76	0.015
791.94	0.015
792.12	0.015
792.30	0.015
792.48	0.015
792.65	0.015
792.83	0.015
793.01	0.016
793.19	0.016
793.37	0.016
793.54	0.016
793.72	0.016
793.90	0.016
794.08	0.017
794.26	0.016
794.43	0.016
794.61	0.016
794.79	0.016
794.97	0.016
795.15	0.016
795.32	0.016
795.50	0.016
795.68	0.017
795.86	0.016
796.04	0.017
796.21	0.017
796.39	0.017
796.57	0.017
796.75	0.016
796.92	0.016
797.10	0.016
797.28	0.016
797.46	0.016
797.64	0.016
797.81	0.016
797.99	0.015
798.17	0.015
798.35	0.015
798.52	0.016
798.70	0.016
798.88	0.015
799.06	0.015
799.23	0.015
799.41	0.015
799.59	0.016
799.77	0.016
799.94	0.016
800.12	0.016
800.30	0.016
800.48	0.016
800.65	0.016
800.83	0.016
801.01	0.016
801.19	0.016
801.36	0.015
801.54	0.015
801.72	0.015
801.90	0.015
802.07	0.015
802.25	0.015
802.43	0.015
802.60	0.015
802.78	0.016
802.96	0.016
803.14	0.016
803.31	0.016
803.49	0.016
803.67	0.016
803.84	0.015
804.02	0.016
804.20	0.016
804.38	0.016
804.55	0.016
804.73	0.015
804.91	0.015
805.08	0.015
805.26	0.016
805.44	0.015
805.61	0.015
805.79	0.016
805.97	0.016
806.15	0.015
806.32	0.015
806.50	0.015
806.68	0.015
806.85	0.015
807.03	0.015
807.21	0.015
807.38	0.015
807.56	0.016
807.74	0.016
807.91	0.015
808.09	0.015
808.27	0.015
808.44	0.015
808.62	0.015
808.80	0.015
808.97	0.015
809.15	0.015
809.33	0.015
809.50	0.015
809.68	0.015
809.86	0.015
810.03	0.015
810.21	0.015
810.39	0.015
810.56	0.016
810.74	0.016
810.91	0.016
811.09	0.016
811.27	0.016
811.44	0.016
811.62	0.016
811.80	0.016
811.97	0.015
812.15	0.016
812.33	0.016
812.50	0.016
812.68	0.016
812.85	0.016
813.03	0.016
813.21	0.016
813.38	0.016
813.56	0.016
813.74	0.016
813.91	0.015
814.09	0.016
814.26	0.015
814.44	0.015
814.62	0.015
814.79	0.015
814.97	0.015
815.14	0.015
815.32	0.015
815.50	0.015
815.67	0.015
815.85	0.016
816.02	0.016
816.20	0.016
816.38	0.016
816.55	0.016
816.73	0.016
816.90	0.016
817.08	0.016
817.26	0.016
817.43	0.016
817.61	0.016
817.78	0.015
817.96	0.015
818.13	0.015
818.31	0.016
818.49	0.015
818.66	0.015
818.84	0.016
819.01	0.015
819.19	0.015
819.36	0.015
819.54	0.015
819.71	0.016
819.89	0.015
820.07	0.016
820.24	0.016
820.42	0.016
820.59	0.016
820.77	0.016
820.94	0.016
821.12	0.016
821.29	0.016
821.47	0.016
821.64	0.016
821.82	0.016
822.00	0.016
822.17	0.016
822.35	0.016
822.52	0.016
822.70	0.016
822.87	0.016
823.05	0.015
823.22	0.016
823.40	0.015
823.57	0.016
823.75	0.015
823.92	0.015
824.10	0.015
824.27	0.015
824.45	0.015
824.62	0.014
824.80	0.014
824.97	0.015
825.15	0.015
825.32	0.015
825.50	0.014
825.67	0.015
825.85	0.016
826.02	0.016
826.20	0.016
826.37	0.017
826.55	0.018
826.72	0.018
826.90	0.018
827.07	0.018
827.25	0.017
827.42	0.017
827.60	0.017
827.77	0.016
827.95	0.016
828.12	0.016
828.30	0.015
828.47	0.015
828.65	0.015
828.82	0.015
829.00	0.015
829.17	0.015
829.34	0.016
829.52	0.016
829.69	0.017
829.87	0.016
830.04	0.017
830.22	0.017
830.39	0.017
830.57	0.017
830.74	0.017
830.92	0.017
831.09	0.017
831.26	0.016
831.44	0.017
831.61	0.018
831.79	0.019
831.96	0.018
832.14	0.018
832.31	0.017
832.49	0.016
832.66	0.016
832.83	0.016
833.01	0.016
833.18	0.016
833.36	0.014
833.53	0.012
833.70	0.011
833.88	0.012
834.05	0.012
834.23	0.010
834.40	0.009
834.58	0.009
834.75	0.010
834.92	0.009
835.10	0.007
835.27	0.007
835.45	0.007
835.62	0.008
835.79	0.008
835.97	0.009
836.14	0.010
836.32	0.011
836.49	0.012
836.66	0.010
836.84	0.011
837.01	0.011
837.18	0.012
837.36	0.011
837.53	0.012
837.71	0.010
837.88	0.010
838.05	0.008
838.23	0.010
838.40	0.009
838.58	0.009
838.75	0.009
838.92	0.009
839.10	0.009
839.27	0.010
839.44	0.010
839.62	0.011
839.79	0.011
839.96	0.016
840.14	0.017
840.31	0.017
840.48	0.017
840.66	0.020
840.83	0.020
841.01	0.018
841.18	0.018
841.35	0.017
841.53	0.016
841.70	0.017
841.87	0.014
842.05	0.011
842.22	0.010
842.39	0.012
842.57	0.010
842.74	0.010
842.91	0.013
843.09	0.013
843.26	0.016
843.43	0.017
843.60	0.014
843.78	0.015
843.95	0.016
844.12	0.015
844.30	0.015
844.47	0.014
844.64	0.016
844.82	0.013
844.99	0.012
845.16	0.010
845.34	0.011
845.51	0.014
845.68	0.013
845.85	0.014
846.03	0.014
846.20	0.015
846.37	0.016
846.55	0.017
846.72	0.019
846.89	0.019
847.06	0.018
847.24	0.018
847.41	0.016
847.58	0.014
847.76	0.015
847.93	0.016
848.10	0.016
848.27	0.014
848.45	0.015
848.62	0.016
848.79	0.016
848.97	0.015
849.14	0.013
849.31	0.014
849.48	0.015
849.66	0.016
849.83	0.013
850.00	0.013
850.17	0.011
850.35	0.007
850.52	0.004
850.69	0.007
850.86	0.009
851.04	0.012
851.21	0.012
851.38	0.010
851.55	0.009
851.72	0.010
851.90	0.013
852.07	0.015
852.24	0.016
852.41	0.017
852.59	0.015
852.76	0.015
852.93	0.015
853.10	0.015
853.28	0.016
853.45	0.015
853.62	0.016
853.79	0.014
853.96	0.011
854.14	0.012
854.31	0.013
854.48	0.015
854.65	0.014
854.82	0.016
855.00	0.015
855.17	0.015
855.34	0.015
855.51	0.015
855.68	0.014
855.86	0.018
856.03	0.016
856.20	0.013
856.37	0.008
856.54	0.008
856.72	0.004
856.89	0.004
857.06	0.002
857.23	0.005
857.40	0.005
857.57	0.004
857.75	0.004
857.92	0.006
858.09	0.008
858.26	0.011
858.43	0.008
858.60	0.012
858.78	0.013
858.95	0.014
859.12	0.013
859.29	0.011
859.46	0.012
859.63	0.016
859.81	0.016
859.98	0.015
860.15	0.016
860.32	0.019
860.49	0.013
860.66	0.013
860.83	0.013
861.01	0.012
861.18	0.012
861.35	0.014
861.52	0.011
861.69	0.010
861.86	0.012
862.03	0.011
862.21	0.013
862.38	0.015
862.55	0.014
862.72	0.016
862.89	0.018
863.06	0.021
863.23	0.021
863.40	0.016
863.58	0.014
863.75	0.014
863.92	0.014
864.09	0.011
864.26	0.010
864.43	0.011
864.60	0.010
864.77	0.010
864.94	0.015
865.11	0.014
865.29	0.017
865.46	0.018
865.63	0.020
865.80	0.020
865.97	0.023
866.14	0.025
866.31	0.022
866.48	0.021
866.65	0.024
866.82	0.019
866.99	0.015
867.16	0.012
867.34	0.013
867.51	0.012
867.68	0.011
867.85	0.010
868.02	0.006
868.19	0.008
868.36	0.007
868.53	0.001
868.70	0.002
868.87	0.001
869.04	0.007
869.21	0.011
869.38	0.008
869.55	0.009
869.72	0.011
869.89	0.020
870.06	0.022
870.24	0.026
870.41	0.021
870.58	0.019
870.75	0.023
870.92	0.022
871.09	0.021
871.26	0.024
871.43	0.028
871.60	0.027
871.77	0.019
871.94	0.020
872.11	0.020
872.28	0.023
872.45	0.024
872.62	0.022
872.79	0.019
872.96	0.016
873.13	0.010
873.30	0.003
873.47	0.002
873.64	0.005
873.81	0.004
873.98	-0.000
874.15	0.006
874.32	0.007
874.49	0.013
874.66	0.011
874.83	0.014
875.00	0.017
875.17	0.019
875.34	0.020
875.51	0.021
875.68	0.023
875.85	0.028
876.02	0.024
876.19	0.026
876.36	0.025
876.53	0.028
876.70	0.028
876.87	0.030
877.04	0.026
877.21	0.022
877.38	0.021
877.55	0.020
877.72	0.019
877.89	0.018
878.06	0.015
878.23	0.012
878.39	0.009
878.56	0.012
878.73	0.008
878.90	0.013
879.07	0.017
879.24	0.013
879.41	0.017
879.58	0.013
879.75	0.015
879.92	0.012
880.09	0.012
880.26	0.011
880.43	0.006
880.60	0.008
880.77	0.013
880.94	0.018
881.11	0.021
881.27	0.020
881.44	0.019
881.61	0.018
881.78	0.018
881.95	0.017
882.12	0.022
882.29	0.022
882.46	0.024
882.63	0.024
882.80	0.018
882.97	0.020
883.14	0.008
883.30	0.008
883.47	0.006
883.64	-0.002
883.81	0.006
883.98	0.007
884.15	0.007
884.32	0.006
884.49	0.007
884.66	0.004
884.82	0.008
884.99	0.016
885.16	0.025
885.33	0.020
885.50	0.037
885.67	0.039
885.84	0.038
886.01	0.032
886.17	0.030
886.34	0.028
886.51	0.036
886.68	0.027
886.85	0.022
887.02	0.029
887.19	0.038
887.36	0.027
887.52	0.016
887.69	0.020
887.86	0.029
888.03	0.026
888.20	0.031
888.37	0.028
888.54	0.032
888.70	0.044
888.87	0.027
889.04	0.026
889.21	0.029
889.38	0.036
889.55	0.035
889.71	-0.015
889.88	0.011
890.05	-0.036
890.22	0.069
890.39	0.054
>>>>>End Processed Spectral Data<<<<<
