SpectraSuite Data File
++++++++++++++++++++++++++++++++++++
Date: Mon Jun 15 09:40:57 PDT 2015
User: introlabs
Dark Spectrum Present: Yes
Reference Spectrum Present: Yes
Number of Sampled Component Spectra: 1
Spectrometers: USB4H08886
Integration Time (usec): 44366 (USB4H08886)
Spectra Averaged: 20 (USB4H08886)
Boxcar Smoothing: 5 (USB4H08886)
Correct for Electrical Dark: Yes (USB4H08886)
Strobe/Lamp Enabled: No (USB4H08886)
Correct for Detector Non-linearity: Yes (USB4H08886)
Correct for Stray Light: Yes (USB4H08886)
Number of Pixels in Processed Spectrum: 3648
>>>>>Begin Processed Spectral Data<<<<<
178.14	-0.000
178.36	-0.000
178.57	-0.000
178.79	-0.000
179.01	-0.735
179.22	-0.000
179.44	-0.000
179.65	-0.106
179.87	0.281
180.08	0.836
180.30	0.833
180.52	-0.000
180.73	0.592
180.95	0.133
181.16	0.102
181.38	0.036
181.59	0.028
181.81	0.007
182.03	0.007
182.24	0.010
182.46	0.012
182.67	0.014
182.89	0.016
183.10	0.016
183.32	0.017
183.54	0.001
183.75	0.015
183.97	0.015
184.18	0.016
184.40	0.010
184.61	0.015
184.83	0.008
185.04	0.006
185.26	-0.002
185.48	0.005
185.69	0.008
185.91	0.007
186.12	-0.002
186.34	0.006
186.55	0.003
186.77	0.005
186.98	-0.004
187.20	-0.011
187.42	-0.006
187.63	-0.002
187.85	-0.001
188.06	-0.003
188.28	0.008
188.49	0.017
188.71	0.017
188.92	0.010
189.14	0.011
189.36	0.028
189.57	0.031
189.79	0.015
190.00	0.015
190.22	0.010
190.43	0.012
190.65	0.003
190.86	0.001
191.08	-0.007
191.29	-0.000
191.51	0.002
191.72	-0.012
191.94	-0.009
192.16	-0.000
192.37	-0.001
192.59	-0.003
192.80	-0.004
193.02	0.006
193.23	0.009
193.45	0.006
193.66	0.005
193.88	0.001
194.09	0.002
194.31	0.000
194.52	-0.003
194.74	0.001
194.95	-0.005
195.17	-0.006
195.38	-0.022
195.60	-0.032
195.81	-0.021
196.03	-0.020
196.25	-0.009
196.46	-0.013
196.68	-0.011
196.89	-0.008
197.11	-0.005
197.32	0.004
197.54	0.006
197.75	0.026
197.97	0.025
198.18	0.017
198.40	0.023
198.61	0.013
198.83	0.012
199.04	0.012
199.26	0.008
199.47	-0.003
199.69	-0.005
199.90	-0.001
200.12	-0.007
200.33	-0.003
200.55	-0.001
200.76	-0.012
200.98	-0.012
201.19	-0.007
201.41	-0.011
201.62	-0.006
201.84	0.003
202.05	0.005
202.27	-0.000
202.48	0.005
202.70	0.006
202.91	0.006
203.13	0.014
203.34	0.010
203.56	0.008
203.77	0.007
203.99	0.005
204.20	0.001
204.42	0.002
204.63	0.004
204.85	-0.003
205.06	-0.011
205.28	-0.002
205.49	-0.005
205.71	0.006
205.92	0.012
206.14	0.010
206.35	0.017
206.56	0.022
206.78	0.016
206.99	0.020
207.21	0.024
207.42	0.025
207.64	0.023
207.85	0.025
208.07	0.020
208.28	0.017
208.50	0.027
208.71	0.028
208.93	0.025
209.14	0.029
209.36	0.021
209.57	0.020
209.79	0.027
210.00	0.026
210.22	0.027
210.43	0.028
210.64	0.024
210.86	0.014
211.07	0.007
211.29	0.006
211.50	-0.000
211.72	0.000
211.93	0.002
212.15	-0.000
212.36	-0.008
212.58	-0.006
212.79	-0.004
213.01	-0.006
213.22	0.001
213.43	-0.000
213.65	-0.001
213.86	-0.002
214.08	0.004
214.29	0.005
214.51	-0.001
214.72	0.000
214.94	-0.008
215.15	-0.009
215.36	-0.006
215.58	-0.009
215.79	-0.013
216.01	-0.011
216.22	-0.008
216.44	-0.017
216.65	-0.025
216.87	-0.021
217.08	-0.019
217.29	-0.007
217.51	-0.009
217.72	-0.015
217.94	-0.014
218.15	-0.007
218.37	-0.013
218.58	-0.011
218.80	-0.001
219.01	-0.001
219.22	-0.001
219.44	-0.000
219.65	-0.008
219.87	-0.003
220.08	-0.002
220.30	-0.005
220.51	-0.008
220.72	-0.008
220.94	-0.010
221.15	-0.014
221.37	-0.011
221.58	-0.010
221.79	-0.006
222.01	-0.011
222.22	-0.019
222.44	-0.014
222.65	-0.013
222.87	-0.014
223.08	-0.016
223.29	-0.015
223.51	-0.016
223.72	-0.019
223.94	-0.025
224.15	-0.028
224.36	-0.023
224.58	-0.024
224.79	-0.023
225.01	-0.026
225.22	-0.022
225.44	-0.020
225.65	-0.020
225.86	-0.021
226.08	-0.020
226.29	-0.020
226.51	-0.023
226.72	-0.021
226.93	-0.017
227.15	-0.027
227.36	-0.027
227.58	-0.029
227.79	-0.022
228.00	-0.024
228.22	-0.031
228.43	-0.034
228.65	-0.033
228.86	-0.032
229.07	-0.036
229.29	-0.042
229.50	-0.040
229.72	-0.039
229.93	-0.042
230.14	-0.048
230.36	-0.051
230.57	-0.048
230.78	-0.048
231.00	-0.052
231.21	-0.057
231.43	-0.056
231.64	-0.055
231.85	-0.053
232.07	-0.057
232.28	-0.057
232.50	-0.059
232.71	-0.060
232.92	-0.060
233.14	-0.060
233.35	-0.059
233.56	-0.057
233.78	-0.059
233.99	-0.059
234.21	-0.060
234.42	-0.058
234.63	-0.057
234.85	-0.057
235.06	-0.057
235.27	-0.057
235.49	-0.056
235.70	-0.057
235.91	-0.059
236.13	-0.057
236.34	-0.059
236.56	-0.059
236.77	-0.060
236.98	-0.060
237.20	-0.060
237.41	-0.059
237.62	-0.059
237.84	-0.060
238.05	-0.059
238.26	-0.058
238.48	-0.059
238.69	-0.057
238.91	-0.056
239.12	-0.056
239.33	-0.056
239.55	-0.054
239.76	-0.054
239.97	-0.052
240.19	-0.050
240.40	-0.050
240.61	-0.049
240.83	-0.049
241.04	-0.048
241.25	-0.048
241.47	-0.046
241.68	-0.045
241.89	-0.044
242.11	-0.044
242.32	-0.044
242.53	-0.044
242.75	-0.043
242.96	-0.042
243.17	-0.041
243.39	-0.041
243.60	-0.040
243.81	-0.040
244.03	-0.041
244.24	-0.040
244.45	-0.040
244.67	-0.039
244.88	-0.038
245.09	-0.037
245.31	-0.037
245.52	-0.037
245.73	-0.037
245.95	-0.037
246.16	-0.036
246.37	-0.036
246.59	-0.036
246.80	-0.035
247.01	-0.035
247.23	-0.035
247.44	-0.035
247.65	-0.035
247.87	-0.034
248.08	-0.034
248.29	-0.033
248.51	-0.033
248.72	-0.032
248.93	-0.032
249.15	-0.032
249.36	-0.032
249.57	-0.032
249.78	-0.031
250.00	-0.031
250.21	-0.031
250.42	-0.031
250.64	-0.031
250.85	-0.031
251.06	-0.031
251.28	-0.030
251.49	-0.030
251.70	-0.031
251.92	-0.030
252.13	-0.029
252.34	-0.028
252.55	-0.028
252.77	-0.029
252.98	-0.029
253.19	-0.028
253.41	-0.028
253.62	-0.028
253.83	-0.028
254.05	-0.027
254.26	-0.027
254.47	-0.028
254.68	-0.028
254.90	-0.028
255.11	-0.027
255.32	-0.027
255.54	-0.027
255.75	-0.027
255.96	-0.027
256.17	-0.027
256.39	-0.027
256.60	-0.027
256.81	-0.027
257.03	-0.027
257.24	-0.027
257.45	-0.027
257.66	-0.027
257.88	-0.027
258.09	-0.027
258.30	-0.027
258.51	-0.028
258.73	-0.027
258.94	-0.028
259.15	-0.028
259.37	-0.028
259.58	-0.029
259.79	-0.029
260.00	-0.028
260.22	-0.028
260.43	-0.028
260.64	-0.029
260.85	-0.029
261.07	-0.029
261.28	-0.029
261.49	-0.030
261.71	-0.029
261.92	-0.029
262.13	-0.029
262.34	-0.030
262.56	-0.030
262.77	-0.030
262.98	-0.030
263.19	-0.030
263.41	-0.031
263.62	-0.031
263.83	-0.031
264.04	-0.032
264.26	-0.032
264.47	-0.033
264.68	-0.033
264.89	-0.033
265.11	-0.034
265.32	-0.034
265.53	-0.034
265.74	-0.034
265.96	-0.034
266.17	-0.034
266.38	-0.034
266.59	-0.034
266.81	-0.034
267.02	-0.034
267.23	-0.035
267.44	-0.035
267.65	-0.035
267.87	-0.036
268.08	-0.036
268.29	-0.036
268.50	-0.036
268.72	-0.036
268.93	-0.036
269.14	-0.037
269.35	-0.037
269.57	-0.037
269.78	-0.037
269.99	-0.037
270.20	-0.038
270.41	-0.038
270.63	-0.038
270.84	-0.039
271.05	-0.039
271.26	-0.040
271.48	-0.040
271.69	-0.040
271.90	-0.041
272.11	-0.041
272.32	-0.042
272.54	-0.042
272.75	-0.042
272.96	-0.042
273.17	-0.042
273.39	-0.042
273.60	-0.042
273.81	-0.042
274.02	-0.042
274.23	-0.042
274.45	-0.042
274.66	-0.042
274.87	-0.042
275.08	-0.042
275.29	-0.042
275.51	-0.043
275.72	-0.043
275.93	-0.043
276.14	-0.042
276.35	-0.042
276.57	-0.042
276.78	-0.042
276.99	-0.042
277.20	-0.042
277.41	-0.042
277.63	-0.042
277.84	-0.041
278.05	-0.041
278.26	-0.041
278.47	-0.041
278.69	-0.041
278.90	-0.040
279.11	-0.040
279.32	-0.040
279.53	-0.040
279.74	-0.040
279.96	-0.039
280.17	-0.039
280.38	-0.039
280.59	-0.039
280.80	-0.039
281.02	-0.038
281.23	-0.038
281.44	-0.038
281.65	-0.038
281.86	-0.037
282.07	-0.037
282.29	-0.037
282.50	-0.037
282.71	-0.037
282.92	-0.037
283.13	-0.036
283.35	-0.036
283.56	-0.036
283.77	-0.036
283.98	-0.035
284.19	-0.035
284.40	-0.035
284.62	-0.034
284.83	-0.034
285.04	-0.034
285.25	-0.033
285.46	-0.032
285.67	-0.032
285.88	-0.031
286.10	-0.031
286.31	-0.030
286.52	-0.029
286.73	-0.028
286.94	-0.028
287.15	-0.027
287.37	-0.026
287.58	-0.025
287.79	-0.025
288.00	-0.024
288.21	-0.023
288.42	-0.023
288.63	-0.022
288.85	-0.022
289.06	-0.021
289.27	-0.021
289.48	-0.021
289.69	-0.020
289.90	-0.019
290.11	-0.019
290.33	-0.018
290.54	-0.018
290.75	-0.017
290.96	-0.017
291.17	-0.017
291.38	-0.016
291.59	-0.015
291.81	-0.015
292.02	-0.015
292.23	-0.015
292.44	-0.014
292.65	-0.014
292.86	-0.014
293.07	-0.013
293.28	-0.013
293.50	-0.013
293.71	-0.013
293.92	-0.013
294.13	-0.012
294.34	-0.012
294.55	-0.012
294.76	-0.012
294.97	-0.012
295.19	-0.011
295.40	-0.011
295.61	-0.011
295.82	-0.011
296.03	-0.011
296.24	-0.011
296.45	-0.011
296.66	-0.011
296.87	-0.011
297.09	-0.011
297.30	-0.011
297.51	-0.011
297.72	-0.011
297.93	-0.010
298.14	-0.010
298.35	-0.010
298.56	-0.010
298.77	-0.010
298.99	-0.010
299.20	-0.009
299.41	-0.009
299.62	-0.010
299.83	-0.009
300.04	-0.009
300.25	-0.009
300.46	-0.009
300.67	-0.009
300.88	-0.009
301.10	-0.009
301.31	-0.009
301.52	-0.009
301.73	-0.009
301.94	-0.009
302.15	-0.009
302.36	-0.009
302.57	-0.009
302.78	-0.009
302.99	-0.009
303.20	-0.009
303.41	-0.009
303.63	-0.009
303.84	-0.009
304.05	-0.009
304.26	-0.009
304.47	-0.009
304.68	-0.009
304.89	-0.009
305.10	-0.009
305.31	-0.009
305.52	-0.009
305.73	-0.009
305.94	-0.009
306.15	-0.009
306.37	-0.009
306.58	-0.009
306.79	-0.008
307.00	-0.009
307.21	-0.008
307.42	-0.008
307.63	-0.009
307.84	-0.008
308.05	-0.008
308.26	-0.008
308.47	-0.008
308.68	-0.008
308.89	-0.008
309.10	-0.009
309.31	-0.008
309.52	-0.008
309.73	-0.009
309.95	-0.009
310.16	-0.009
310.37	-0.009
310.58	-0.009
310.79	-0.009
311.00	-0.009
311.21	-0.009
311.42	-0.009
311.63	-0.009
311.84	-0.009
312.05	-0.009
312.26	-0.008
312.47	-0.008
312.68	-0.008
312.89	-0.008
313.10	-0.008
313.31	-0.008
313.52	-0.008
313.73	-0.008
313.94	-0.008
314.15	-0.008
314.36	-0.008
314.57	-0.008
314.78	-0.008
314.99	-0.008
315.21	-0.008
315.42	-0.008
315.63	-0.008
315.84	-0.008
316.05	-0.008
316.26	-0.008
316.47	-0.008
316.68	-0.008
316.89	-0.008
317.10	-0.008
317.31	-0.008
317.52	-0.008
317.73	-0.008
317.94	-0.008
318.15	-0.008
318.36	-0.008
318.57	-0.007
318.78	-0.007
318.99	-0.007
319.20	-0.007
319.41	-0.007
319.62	-0.007
319.83	-0.007
320.04	-0.007
320.25	-0.007
320.46	-0.008
320.67	-0.008
320.88	-0.008
321.09	-0.008
321.30	-0.008
321.51	-0.008
321.72	-0.008
321.93	-0.008
322.14	-0.008
322.35	-0.008
322.56	-0.008
322.77	-0.008
322.98	-0.008
323.19	-0.008
323.40	-0.008
323.61	-0.008
323.82	-0.007
324.03	-0.007
324.24	-0.007
324.45	-0.007
324.66	-0.007
324.87	-0.007
325.08	-0.007
325.29	-0.007
325.50	-0.007
325.71	-0.007
325.92	-0.007
326.13	-0.007
326.34	-0.007
326.55	-0.007
326.76	-0.007
326.97	-0.007
327.18	-0.007
327.39	-0.007
327.60	-0.007
327.80	-0.007
328.01	-0.007
328.22	-0.007
328.43	-0.007
328.64	-0.006
328.85	-0.006
329.06	-0.006
329.27	-0.006
329.48	-0.006
329.69	-0.006
329.90	-0.006
330.11	-0.006
330.32	-0.006
330.53	-0.006
330.74	-0.006
330.95	-0.006
331.16	-0.006
331.37	-0.006
331.58	-0.006
331.79	-0.006
332.00	-0.006
332.21	-0.006
332.42	-0.006
332.63	-0.006
332.83	-0.006
333.04	-0.006
333.25	-0.006
333.46	-0.005
333.67	-0.006
333.88	-0.006
334.09	-0.006
334.30	-0.006
334.51	-0.006
334.72	-0.006
334.93	-0.006
335.14	-0.006
335.35	-0.005
335.56	-0.005
335.77	-0.005
335.98	-0.005
336.18	-0.005
336.39	-0.005
336.60	-0.005
336.81	-0.005
337.02	-0.005
337.23	-0.005
337.44	-0.005
337.65	-0.005
337.86	-0.005
338.07	-0.005
338.28	-0.005
338.49	-0.005
338.70	-0.005
338.91	-0.005
339.11	-0.005
339.32	-0.005
339.53	-0.004
339.74	-0.004
339.95	-0.004
340.16	-0.004
340.37	-0.004
340.58	-0.004
340.79	-0.004
341.00	-0.004
341.21	-0.004
341.41	-0.004
341.62	-0.004
341.83	-0.004
342.04	-0.004
342.25	-0.004
342.46	-0.004
342.67	-0.004
342.88	-0.004
343.09	-0.004
343.30	-0.003
343.50	-0.003
343.71	-0.003
343.92	-0.003
344.13	-0.003
344.34	-0.003
344.55	-0.003
344.76	-0.003
344.97	-0.003
345.18	-0.003
345.38	-0.003
345.59	-0.003
345.80	-0.003
346.01	-0.003
346.22	-0.003
346.43	-0.003
346.64	-0.003
346.85	-0.003
347.06	-0.003
347.26	-0.003
347.47	-0.003
347.68	-0.003
347.89	-0.003
348.10	-0.002
348.31	-0.003
348.52	-0.002
348.73	-0.003
348.93	-0.002
349.14	-0.003
349.35	-0.003
349.56	-0.002
349.77	-0.002
349.98	-0.002
350.19	-0.002
350.39	-0.002
350.60	-0.002
350.81	-0.002
351.02	-0.002
351.23	-0.002
351.44	-0.002
351.65	-0.002
351.86	-0.002
352.06	-0.002
352.27	-0.002
352.48	-0.002
352.69	-0.002
352.90	-0.002
353.11	-0.001
353.31	-0.001
353.52	-0.001
353.73	-0.001
353.94	-0.001
354.15	-0.001
354.36	-0.001
354.57	-0.001
354.77	-0.001
354.98	-0.001
355.19	-0.001
355.40	-0.001
355.61	-0.001
355.82	-0.001
356.02	-0.001
356.23	-0.001
356.44	-0.001
356.65	-0.001
356.86	-0.001
357.07	-0.001
357.27	-0.001
357.48	-0.001
357.69	-0.001
357.90	-0.001
358.11	-0.001
358.32	-0.001
358.52	-0.001
358.73	-0.001
358.94	-0.001
359.15	-0.001
359.36	-0.001
359.56	-0.001
359.77	-0.001
359.98	-0.000
360.19	-0.000
360.40	-0.000
360.61	-0.000
360.81	-0.000
361.02	-0.000
361.23	-0.000
361.44	-0.000
361.65	-0.000
361.85	-0.000
362.06	-0.000
362.27	-0.000
362.48	0.000
362.69	0.000
362.89	0.000
363.10	0.000
363.31	0.000
363.52	0.000
363.73	0.000
363.93	0.000
364.14	0.000
364.35	0.000
364.56	0.000
364.77	0.000
364.97	0.000
365.18	0.000
365.39	0.000
365.60	0.000
365.81	0.000
366.01	0.000
366.22	0.000
366.43	0.000
366.64	0.000
366.84	0.001
367.05	0.001
367.26	0.001
367.47	0.001
367.68	0.001
367.88	0.001
368.09	0.001
368.30	0.001
368.51	0.001
368.71	0.001
368.92	0.001
369.13	0.001
369.34	0.001
369.55	0.001
369.75	0.001
369.96	0.001
370.17	0.001
370.38	0.001
370.58	0.001
370.79	0.001
371.00	0.001
371.21	0.001
371.41	0.001
371.62	0.001
371.83	0.001
372.04	0.001
372.24	0.001
372.45	0.001
372.66	0.002
372.87	0.002
373.07	0.002
373.28	0.002
373.49	0.002
373.70	0.002
373.90	0.002
374.11	0.002
374.32	0.002
374.53	0.001
374.73	0.001
374.94	0.002
375.15	0.001
375.36	0.001
375.56	0.001
375.77	0.001
375.98	0.001
376.19	0.001
376.39	0.001
376.60	0.001
376.81	0.001
377.02	0.001
377.22	0.001
377.43	0.001
377.64	0.001
377.84	0.001
378.05	0.001
378.26	0.001
378.47	0.001
378.67	0.001
378.88	0.002
379.09	0.002
379.30	0.001
379.50	0.001
379.71	0.001
379.92	0.001
380.12	0.001
380.33	0.001
380.54	0.001
380.75	0.001
380.95	0.001
381.16	0.001
381.37	0.002
381.57	0.002
381.78	0.002
381.99	0.002
382.20	0.002
382.40	0.002
382.61	0.002
382.82	0.002
383.02	0.002
383.23	0.002
383.44	0.002
383.64	0.002
383.85	0.002
384.06	0.002
384.27	0.002
384.47	0.002
384.68	0.002
384.89	0.002
385.09	0.002
385.30	0.002
385.51	0.001
385.71	0.001
385.92	0.001
386.13	0.001
386.33	0.001
386.54	0.001
386.75	0.002
386.95	0.002
387.16	0.002
387.37	0.002
387.58	0.002
387.78	0.002
387.99	0.002
388.20	0.002
388.40	0.002
388.61	0.002
388.82	0.002
389.02	0.002
389.23	0.002
389.44	0.002
389.64	0.002
389.85	0.002
390.06	0.002
390.26	0.002
390.47	0.001
390.68	0.001
390.88	0.001
391.09	0.001
391.30	0.001
391.50	0.001
391.71	0.001
391.92	0.001
392.12	0.001
392.33	0.002
392.53	0.002
392.74	0.002
392.95	0.002
393.15	0.002
393.36	0.002
393.57	0.002
393.77	0.002
393.98	0.002
394.19	0.002
394.39	0.003
394.60	0.003
394.81	0.003
395.01	0.003
395.22	0.002
395.43	0.002
395.63	0.002
395.84	0.002
396.04	0.002
396.25	0.002
396.46	0.002
396.66	0.002
396.87	0.002
397.08	0.002
397.28	0.001
397.49	0.002
397.69	0.002
397.90	0.002
398.11	0.002
398.31	0.002
398.52	0.002
398.73	0.002
398.93	0.002
399.14	0.002
399.34	0.002
399.55	0.002
399.76	0.002
399.96	0.002
400.17	0.002
400.37	0.002
400.58	0.002
400.79	0.003
400.99	0.002
401.20	0.002
401.41	0.003
401.61	0.003
401.82	0.003
402.02	0.003
402.23	0.002
402.44	0.002
402.64	0.002
402.85	0.002
403.05	0.002
403.26	0.002
403.47	0.002
403.67	0.002
403.88	0.002
404.08	0.002
404.29	0.002
404.50	0.002
404.70	0.002
404.91	0.002
405.11	0.002
405.32	0.002
405.52	0.002
405.73	0.002
405.94	0.002
406.14	0.002
406.35	0.002
406.55	0.002
406.76	0.002
406.97	0.002
407.17	0.002
407.38	0.002
407.58	0.002
407.79	0.002
407.99	0.002
408.20	0.002
408.41	0.002
408.61	0.002
408.82	0.002
409.02	0.002
409.23	0.002
409.43	0.002
409.64	0.002
409.84	0.002
410.05	0.002
410.26	0.002
410.46	0.002
410.67	0.002
410.87	0.002
411.08	0.002
411.28	0.002
411.49	0.002
411.69	0.002
411.90	0.002
412.11	0.002
412.31	0.002
412.52	0.002
412.72	0.002
412.93	0.002
413.13	0.002
413.34	0.002
413.54	0.002
413.75	0.002
413.95	0.002
414.16	0.002
414.37	0.002
414.57	0.002
414.78	0.002
414.98	0.002
415.19	0.002
415.39	0.002
415.60	0.002
415.80	0.002
416.01	0.002
416.21	0.002
416.42	0.002
416.62	0.002
416.83	0.002
417.03	0.002
417.24	0.002
417.44	0.002
417.65	0.002
417.86	0.002
418.06	0.002
418.27	0.002
418.47	0.002
418.68	0.001
418.88	0.001
419.09	0.001
419.29	0.001
419.50	0.001
419.70	0.001
419.91	0.001
420.11	0.001
420.32	0.002
420.52	0.001
420.73	0.001
420.93	0.001
421.14	0.002
421.34	0.002
421.55	0.002
421.75	0.002
421.96	0.002
422.16	0.002
422.37	0.002
422.57	0.002
422.78	0.002
422.98	0.002
423.19	0.002
423.39	0.002
423.60	0.002
423.80	0.002
424.01	0.002
424.21	0.002
424.42	0.003
424.62	0.003
424.83	0.003
425.03	0.002
425.23	0.002
425.44	0.002
425.64	0.002
425.85	0.002
426.05	0.002
426.26	0.002
426.46	0.002
426.67	0.002
426.87	0.002
427.08	0.002
427.28	0.002
427.49	0.002
427.69	0.001
427.90	0.001
428.10	0.001
428.31	0.001
428.51	0.001
428.71	0.001
428.92	0.001
429.12	0.001
429.33	0.001
429.53	0.001
429.74	0.002
429.94	0.002
430.15	0.002
430.35	0.002
430.56	0.002
430.76	0.002
430.96	0.002
431.17	0.002
431.37	0.002
431.58	0.003
431.78	0.003
431.99	0.003
432.19	0.003
432.40	0.003
432.60	0.003
432.80	0.003
433.01	0.003
433.21	0.003
433.42	0.002
433.62	0.002
433.83	0.002
434.03	0.002
434.23	0.002
434.44	0.002
434.64	0.002
434.85	0.002
435.05	0.002
435.26	0.002
435.46	0.002
435.66	0.002
435.87	0.002
436.07	0.002
436.28	0.002
436.48	0.002
436.69	0.002
436.89	0.002
437.09	0.002
437.30	0.002
437.50	0.002
437.71	0.002
437.91	0.002
438.11	0.002
438.32	0.002
438.52	0.002
438.73	0.002
438.93	0.002
439.13	0.002
439.34	0.002
439.54	0.002
439.75	0.002
439.95	0.002
440.15	0.002
440.36	0.002
440.56	0.002
440.77	0.002
440.97	0.002
441.17	0.002
441.38	0.002
441.58	0.002
441.79	0.002
441.99	0.002
442.19	0.002
442.40	0.002
442.60	0.002
442.81	0.002
443.01	0.002
443.21	0.002
443.42	0.002
443.62	0.002
443.82	0.002
444.03	0.002
444.23	0.002
444.44	0.002
444.64	0.002
444.84	0.002
445.05	0.002
445.25	0.002
445.45	0.002
445.66	0.002
445.86	0.002
446.06	0.002
446.27	0.002
446.47	0.002
446.68	0.002
446.88	0.002
447.08	0.002
447.29	0.002
447.49	0.002
447.69	0.002
447.90	0.002
448.10	0.002
448.30	0.002
448.51	0.002
448.71	0.002
448.91	0.002
449.12	0.002
449.32	0.002
449.52	0.002
449.73	0.002
449.93	0.002
450.14	0.002
450.34	0.002
450.54	0.002
450.75	0.002
450.95	0.002
451.15	0.002
451.36	0.002
451.56	0.002
451.76	0.002
451.97	0.002
452.17	0.002
452.37	0.002
452.58	0.002
452.78	0.002
452.98	0.002
453.19	0.002
453.39	0.002
453.59	0.002
453.79	0.002
454.00	0.002
454.20	0.002
454.40	0.002
454.61	0.002
454.81	0.002
455.01	0.002
455.22	0.002
455.42	0.002
455.62	0.002
455.83	0.002
456.03	0.002
456.23	0.002
456.44	0.002
456.64	0.002
456.84	0.002
457.04	0.002
457.25	0.002
457.45	0.002
457.65	0.002
457.86	0.002
458.06	0.002
458.26	0.002
458.47	0.002
458.67	0.002
458.87	0.002
459.07	0.002
459.28	0.002
459.48	0.002
459.68	0.002
459.89	0.002
460.09	0.002
460.29	0.002
460.49	0.002
460.70	0.002
460.90	0.003
461.10	0.002
461.31	0.002
461.51	0.003
461.71	0.003
461.91	0.003
462.12	0.002
462.32	0.002
462.52	0.002
462.72	0.002
462.93	0.002
463.13	0.002
463.33	0.002
463.53	0.002
463.74	0.002
463.94	0.002
464.14	0.002
464.35	0.002
464.55	0.002
464.75	0.002
464.95	0.002
465.16	0.002
465.36	0.002
465.56	0.002
465.76	0.002
465.97	0.002
466.17	0.002
466.37	0.002
466.57	0.002
466.78	0.002
466.98	0.002
467.18	0.002
467.38	0.003
467.59	0.003
467.79	0.003
467.99	0.002
468.19	0.002
468.39	0.002
468.60	0.002
468.80	0.002
469.00	0.002
469.20	0.002
469.41	0.002
469.61	0.002
469.81	0.002
470.01	0.002
470.22	0.002
470.42	0.002
470.62	0.002
470.82	0.002
471.02	0.002
471.23	0.002
471.43	0.002
471.63	0.002
471.83	0.002
472.04	0.002
472.24	0.002
472.44	0.001
472.64	0.001
472.84	0.001
473.05	0.001
473.25	0.001
473.45	0.001
473.65	0.001
473.85	0.001
474.06	0.001
474.26	0.001
474.46	0.001
474.66	0.001
474.86	0.001
475.07	0.002
475.27	0.002
475.47	0.002
475.67	0.002
475.87	0.002
476.08	0.002
476.28	0.002
476.48	0.002
476.68	0.002
476.88	0.002
477.09	0.002
477.29	0.002
477.49	0.002
477.69	0.002
477.89	0.002
478.09	0.002
478.30	0.002
478.50	0.002
478.70	0.002
478.90	0.001
479.10	0.001
479.31	0.001
479.51	0.001
479.71	0.001
479.91	0.001
480.11	0.001
480.31	0.001
480.52	0.001
480.72	0.002
480.92	0.002
481.12	0.002
481.32	0.002
481.52	0.002
481.72	0.002
481.93	0.002
482.13	0.002
482.33	0.001
482.53	0.001
482.73	0.001
482.93	0.001
483.14	0.001
483.34	0.001
483.54	0.001
483.74	0.001
483.94	0.001
484.14	0.001
484.34	0.001
484.55	0.001
484.75	0.001
484.95	0.001
485.15	0.001
485.35	0.002
485.55	0.002
485.75	0.002
485.96	0.002
486.16	0.002
486.36	0.002
486.56	0.002
486.76	0.002
486.96	0.002
487.16	0.003
487.36	0.003
487.57	0.003
487.77	0.003
487.97	0.003
488.17	0.003
488.37	0.003
488.57	0.003
488.77	0.003
488.97	0.003
489.18	0.003
489.38	0.003
489.58	0.003
489.78	0.003
489.98	0.003
490.18	0.003
490.38	0.003
490.58	0.003
490.78	0.003
490.98	0.003
491.19	0.002
491.39	0.002
491.59	0.002
491.79	0.002
491.99	0.002
492.19	0.002
492.39	0.002
492.59	0.002
492.79	0.002
492.99	0.002
493.20	0.002
493.40	0.002
493.60	0.002
493.80	0.002
494.00	0.002
494.20	0.002
494.40	0.002
494.60	0.002
494.80	0.003
495.00	0.003
495.20	0.003
495.40	0.003
495.61	0.003
495.81	0.003
496.01	0.003
496.21	0.003
496.41	0.003
496.61	0.003
496.81	0.003
497.01	0.003
497.21	0.003
497.41	0.003
497.61	0.003
497.81	0.003
498.01	0.003
498.21	0.004
498.41	0.003
498.61	0.003
498.82	0.003
499.02	0.003
499.22	0.003
499.42	0.003
499.62	0.003
499.82	0.003
500.02	0.003
500.22	0.003
500.42	0.003
500.62	0.003
500.82	0.003
501.02	0.003
501.22	0.003
501.42	0.003
501.62	0.003
501.82	0.003
502.02	0.003
502.22	0.003
502.42	0.003
502.62	0.003
502.82	0.003
503.02	0.003
503.22	0.003
503.42	0.003
503.63	0.003
503.83	0.003
504.03	0.003
504.23	0.003
504.43	0.003
504.63	0.003
504.83	0.003
505.03	0.003
505.23	0.003
505.43	0.003
505.63	0.003
505.83	0.003
506.03	0.003
506.23	0.003
506.43	0.003
506.63	0.003
506.83	0.003
507.03	0.003
507.23	0.003
507.43	0.003
507.63	0.003
507.83	0.003
508.03	0.003
508.23	0.003
508.43	0.003
508.63	0.003
508.83	0.004
509.03	0.004
509.23	0.004
509.43	0.004
509.63	0.004
509.83	0.004
510.03	0.004
510.23	0.004
510.43	0.004
510.63	0.004
510.83	0.004
511.03	0.004
511.23	0.003
511.43	0.003
511.63	0.003
511.83	0.003
512.03	0.003
512.22	0.004
512.42	0.004
512.62	0.004
512.82	0.004
513.02	0.004
513.22	0.004
513.42	0.004
513.62	0.004
513.82	0.004
514.02	0.004
514.22	0.004
514.42	0.004
514.62	0.004
514.82	0.004
515.02	0.004
515.22	0.004
515.42	0.004
515.62	0.004
515.82	0.004
516.02	0.004
516.22	0.004
516.42	0.004
516.62	0.004
516.82	0.004
517.01	0.004
517.21	0.004
517.41	0.004
517.61	0.004
517.81	0.004
518.01	0.004
518.21	0.004
518.41	0.004
518.61	0.004
518.81	0.004
519.01	0.004
519.21	0.004
519.41	0.004
519.61	0.004
519.81	0.004
520.00	0.004
520.20	0.004
520.40	0.004
520.60	0.004
520.80	0.004
521.00	0.004
521.20	0.004
521.40	0.004
521.60	0.004
521.80	0.004
522.00	0.004
522.20	0.004
522.39	0.004
522.59	0.004
522.79	0.004
522.99	0.004
523.19	0.004
523.39	0.004
523.59	0.004
523.79	0.004
523.99	0.004
524.19	0.004
524.38	0.004
524.58	0.004
524.78	0.004
524.98	0.004
525.18	0.004
525.38	0.004
525.58	0.004
525.78	0.004
525.98	0.004
526.18	0.004
526.37	0.004
526.57	0.004
526.77	0.004
526.97	0.004
527.17	0.004
527.37	0.004
527.57	0.004
527.77	0.004
527.96	0.004
528.16	0.004
528.36	0.004
528.56	0.004
528.76	0.004
528.96	0.004
529.16	0.004
529.36	0.004
529.55	0.004
529.75	0.004
529.95	0.004
530.15	0.004
530.35	0.004
530.55	0.004
530.75	0.004
530.94	0.004
531.14	0.004
531.34	0.004
531.54	0.004
531.74	0.004
531.94	0.004
532.13	0.004
532.33	0.004
532.53	0.004
532.73	0.004
532.93	0.004
533.13	0.004
533.33	0.004
533.52	0.004
533.72	0.004
533.92	0.004
534.12	0.004
534.32	0.004
534.52	0.004
534.71	0.004
534.91	0.004
535.11	0.004
535.31	0.004
535.51	0.004
535.71	0.004
535.90	0.004
536.10	0.004
536.30	0.004
536.50	0.004
536.70	0.004
536.89	0.004
537.09	0.004
537.29	0.004
537.49	0.004
537.69	0.004
537.89	0.004
538.08	0.004
538.28	0.004
538.48	0.004
538.68	0.004
538.88	0.004
539.07	0.004
539.27	0.004
539.47	0.004
539.67	0.004
539.87	0.004
540.06	0.004
540.26	0.004
540.46	0.005
540.66	0.005
540.86	0.005
541.05	0.005
541.25	0.005
541.45	0.005
541.65	0.005
541.84	0.005
542.04	0.004
542.24	0.004
542.44	0.004
542.64	0.004
542.83	0.004
543.03	0.004
543.23	0.004
543.43	0.004
543.62	0.004
543.82	0.004
544.02	0.004
544.22	0.004
544.42	0.004
544.61	0.004
544.81	0.004
545.01	0.004
545.21	0.004
545.40	0.004
545.60	0.004
545.80	0.004
546.00	0.004
546.19	0.004
546.39	0.005
546.59	0.005
546.79	0.005
546.98	0.005
547.18	0.005
547.38	0.005
547.58	0.005
547.77	0.005
547.97	0.005
548.17	0.005
548.37	0.005
548.56	0.005
548.76	0.005
548.96	0.005
549.16	0.005
549.35	0.005
549.55	0.005
549.75	0.005
549.95	0.005
550.14	0.005
550.34	0.005
550.54	0.005
550.73	0.005
550.93	0.005
551.13	0.004
551.33	0.004
551.52	0.004
551.72	0.004
551.92	0.004
552.12	0.004
552.31	0.004
552.51	0.004
552.71	0.004
552.90	0.004
553.10	0.004
553.30	0.004
553.50	0.004
553.69	0.004
553.89	0.004
554.09	0.005
554.28	0.005
554.48	0.005
554.68	0.005
554.87	0.005
555.07	0.005
555.27	0.005
555.47	0.005
555.66	0.005
555.86	0.005
556.06	0.005
556.25	0.006
556.45	0.006
556.65	0.005
556.84	0.005
557.04	0.005
557.24	0.006
557.43	0.006
557.63	0.005
557.83	0.005
558.02	0.005
558.22	0.005
558.42	0.005
558.61	0.005
558.81	0.004
559.01	0.004
559.21	0.004
559.40	0.004
559.60	0.004
559.80	0.004
559.99	0.004
560.19	0.004
560.39	0.004
560.58	0.004
560.78	0.004
560.97	0.004
561.17	0.004
561.37	0.004
561.56	0.004
561.76	0.004
561.96	0.004
562.15	0.005
562.35	0.005
562.55	0.005
562.74	0.005
562.94	0.005
563.14	0.005
563.33	0.005
563.53	0.005
563.73	0.005
563.92	0.005
564.12	0.005
564.31	0.005
564.51	0.005
564.71	0.005
564.90	0.005
565.10	0.005
565.30	0.005
565.49	0.005
565.69	0.005
565.89	0.005
566.08	0.005
566.28	0.005
566.47	0.004
566.67	0.004
566.87	0.004
567.06	0.004
567.26	0.004
567.46	0.004
567.65	0.003
567.85	0.003
568.04	0.003
568.24	0.003
568.44	0.003
568.63	0.003
568.83	0.003
569.02	0.003
569.22	0.003
569.42	0.002
569.61	0.003
569.81	0.003
570.00	0.002
570.20	0.003
570.40	0.003
570.59	0.003
570.79	0.003
570.98	0.003
571.18	0.003
571.38	0.003
571.57	0.003
571.77	0.003
571.96	0.003
572.16	0.003
572.35	0.003
572.55	0.003
572.75	0.004
572.94	0.004
573.14	0.004
573.33	0.004
573.53	0.004
573.73	0.004
573.92	0.004
574.12	0.004
574.31	0.004
574.51	0.004
574.70	0.003
574.90	0.003
575.09	0.002
575.29	0.002
575.49	0.002
575.68	0.001
575.88	0.001
576.07	0.001
576.27	0.000
576.46	-0.000
576.66	-0.000
576.86	-0.000
577.05	-0.000
577.25	-0.000
577.44	-0.000
577.64	-0.000
577.83	-0.000
578.03	-0.000
578.22	-0.000
578.42	-0.000
578.61	-0.000
578.81	-0.000
579.00	-0.000
579.20	-0.000
579.40	-0.000
579.59	-0.000
579.79	-0.000
579.98	-0.000
580.18	-0.000
580.37	-0.000
580.57	-0.000
580.76	-0.000
580.96	-0.000
581.15	-0.000
581.35	-0.000
581.54	-0.000
581.74	-0.000
581.93	-0.000
582.13	-0.000
582.32	-0.000
582.52	-0.000
582.71	-0.000
582.91	-0.000
583.10	-0.000
583.30	-0.000
583.49	-0.000
583.69	-0.000
583.88	-0.000
584.08	-0.000
584.27	-0.000
584.47	-0.000
584.66	-0.000
584.86	-0.000
585.05	-0.000
585.25	-0.000
585.44	-0.000
585.64	-0.000
585.83	-0.000
586.03	-0.000
586.22	-0.000
586.42	0.000
586.61	0.001
586.81	0.002
587.00	0.002
587.20	0.003
587.39	0.003
587.59	0.004
587.78	0.004
587.98	0.005
588.17	0.006
588.37	0.006
588.56	0.006
588.76	0.006
588.95	0.006
589.15	0.006
589.34	0.006
589.54	0.006
589.73	0.005
589.92	0.005
590.12	0.005
590.31	0.005
590.51	0.004
590.70	0.004
590.90	0.004
591.09	0.004
591.29	0.004
591.48	0.004
591.68	0.004
591.87	0.004
592.06	0.004
592.26	0.004
592.45	0.004
592.65	0.004
592.84	0.004
593.04	0.004
593.23	0.004
593.43	0.005
593.62	0.005
593.81	0.005
594.01	0.005
594.20	0.005
594.40	0.006
594.59	0.006
594.79	0.006
594.98	0.006
595.17	0.006
595.37	0.006
595.56	0.006
595.76	0.006
595.95	0.005
596.14	0.005
596.34	0.005
596.53	0.004
596.73	0.004
596.92	0.003
597.12	0.003
597.31	0.003
597.50	0.003
597.70	0.003
597.89	0.003
598.09	0.003
598.28	0.003
598.47	0.003
598.67	0.003
598.86	0.004
599.06	0.004
599.25	0.004
599.44	0.004
599.64	0.005
599.83	0.005
600.03	0.005
600.22	0.005
600.41	0.006
600.61	0.006
600.80	0.006
601.00	0.006
601.19	0.006
601.38	0.006
601.58	0.006
601.77	0.006
601.96	0.006
602.16	0.006
602.35	0.006
602.55	0.006
602.74	0.006
602.93	0.005
603.13	0.005
603.32	0.005
603.51	0.004
603.71	0.004
603.90	0.004
604.09	0.003
604.29	0.003
604.48	0.003
604.68	0.003
604.87	0.003
605.06	0.003
605.26	0.003
605.45	0.004
605.64	0.004
605.84	0.004
606.03	0.004
606.22	0.004
606.42	0.005
606.61	0.005
606.80	0.005
607.00	0.005
607.19	0.005
607.38	0.005
607.58	0.005
607.77	0.006
607.96	0.006
608.16	0.006
608.35	0.006
608.54	0.006
608.74	0.006
608.93	0.007
609.12	0.007
609.32	0.007
609.51	0.007
609.70	0.007
609.90	0.007
610.09	0.006
610.28	0.006
610.48	0.006
610.67	0.006
610.86	0.006
611.06	0.005
611.25	0.005
611.44	0.005
611.64	0.005
611.83	0.004
612.02	0.004
612.21	0.004
612.41	0.004
612.60	0.004
612.79	0.004
612.99	0.005
613.18	0.005
613.37	0.005
613.57	0.005
613.76	0.005
613.95	0.005
614.14	0.005
614.34	0.006
614.53	0.006
614.72	0.006
614.92	0.006
615.11	0.006
615.30	0.006
615.49	0.006
615.69	0.006
615.88	0.006
616.07	0.006
616.26	0.007
616.46	0.007
616.65	0.007
616.84	0.007
617.04	0.007
617.23	0.007
617.42	0.007
617.61	0.007
617.81	0.007
618.00	0.007
618.19	0.007
618.38	0.007
618.58	0.006
618.77	0.006
618.96	0.006
619.15	0.006
619.35	0.006
619.54	0.006
619.73	0.006
619.92	0.006
620.12	0.006
620.31	0.006
620.50	0.006
620.69	0.006
620.89	0.006
621.08	0.006
621.27	0.006
621.46	0.006
621.66	0.006
621.85	0.006
622.04	0.006
622.23	0.006
622.43	0.006
622.62	0.006
622.81	0.006
623.00	0.006
623.19	0.006
623.39	0.006
623.58	0.006
623.77	0.006
623.96	0.006
624.16	0.006
624.35	0.007
624.54	0.007
624.73	0.007
624.92	0.007
625.12	0.007
625.31	0.007
625.50	0.007
625.69	0.007
625.88	0.007
626.08	0.007
626.27	0.007
626.46	0.007
626.65	0.007
626.84	0.007
627.04	0.007
627.23	0.007
627.42	0.007
627.61	0.007
627.80	0.007
628.00	0.007
628.19	0.007
628.38	0.007
628.57	0.007
628.76	0.007
628.96	0.007
629.15	0.008
629.34	0.008
629.53	0.008
629.72	0.008
629.91	0.008
630.11	0.008
630.30	0.008
630.49	0.008
630.68	0.008
630.87	0.008
631.06	0.008
631.26	0.008
631.45	0.008
631.64	0.008
631.83	0.008
632.02	0.008
632.21	0.009
632.41	0.009
632.60	0.009
632.79	0.008
632.98	0.008
633.17	0.008
633.36	0.008
633.55	0.008
633.75	0.008
633.94	0.008
634.13	0.008
634.32	0.008
634.51	0.008
634.70	0.007
634.89	0.008
635.09	0.008
635.28	0.008
635.47	0.008
635.66	0.008
635.85	0.008
636.04	0.008
636.23	0.008
636.43	0.008
636.62	0.008
636.81	0.008
637.00	0.008
637.19	0.008
637.38	0.008
637.57	0.008
637.76	0.008
637.95	0.008
638.15	0.008
638.34	0.008
638.53	0.008
638.72	0.009
638.91	0.009
639.10	0.009
639.29	0.009
639.48	0.009
639.67	0.009
639.87	0.009
640.06	0.009
640.25	0.009
640.44	0.008
640.63	0.008
640.82	0.008
641.01	0.008
641.20	0.008
641.39	0.008
641.58	0.008
641.78	0.008
641.97	0.009
642.16	0.009
642.35	0.009
642.54	0.009
642.73	0.009
642.92	0.009
643.11	0.009
643.30	0.009
643.49	0.009
643.68	0.009
643.87	0.009
644.06	0.008
644.25	0.009
644.45	0.008
644.64	0.009
644.83	0.009
645.02	0.008
645.21	0.008
645.40	0.008
645.59	0.008
645.78	0.008
645.97	0.008
646.16	0.008
646.35	0.008
646.54	0.007
646.73	0.007
646.92	0.007
647.11	0.007
647.30	0.007
647.49	0.007
647.68	0.007
647.88	0.007
648.07	0.007
648.26	0.007
648.45	0.007
648.64	0.007
648.83	0.007
649.02	0.007
649.21	0.008
649.40	0.008
649.59	0.008
649.78	0.008
649.97	0.008
650.16	0.008
650.35	0.008
650.54	0.008
650.73	0.009
650.92	0.009
651.11	0.009
651.30	0.009
651.49	0.009
651.68	0.009
651.87	0.009
652.06	0.009
652.25	0.009
652.44	0.008
652.63	0.007
652.82	0.005
653.01	0.004
653.20	0.003
653.39	0.002
653.58	0.002
653.77	0.001
653.96	0.001
654.15	0.001
654.34	0.001
654.53	0.002
654.72	0.002
654.91	0.003
655.10	0.004
655.29	0.004
655.48	0.005
655.67	0.005
655.86	0.005
656.05	0.005
656.24	0.005
656.43	0.005
656.62	0.005
656.81	0.006
657.00	0.007
657.19	0.009
657.38	0.009
657.57	0.010
657.76	0.011
657.95	0.011
658.14	0.012
658.33	0.013
658.51	0.013
658.70	0.013
658.89	0.013
659.08	0.012
659.27	0.011
659.46	0.010
659.65	0.010
659.84	0.010
660.03	0.009
660.22	0.009
660.41	0.009
660.60	0.009
660.79	0.009
660.98	0.009
661.17	0.009
661.36	0.009
661.55	0.009
661.74	0.009
661.92	0.009
662.11	0.009
662.30	0.009
662.49	0.008
662.68	0.009
662.87	0.008
663.06	0.008
663.25	0.008
663.44	0.009
663.63	0.009
663.82	0.009
664.01	0.009
664.20	0.009
664.38	0.009
664.57	0.009
664.76	0.009
664.95	0.009
665.14	0.009
665.33	0.009
665.52	0.009
665.71	0.009
665.90	0.009
666.09	0.009
666.28	0.009
666.46	0.009
666.65	0.009
666.84	0.009
667.03	0.009
667.22	0.009
667.41	0.009
667.60	0.009
667.79	0.009
667.98	0.009
668.16	0.009
668.35	0.009
668.54	0.008
668.73	0.008
668.92	0.008
669.11	0.008
669.30	0.008
669.49	0.008
669.67	0.008
669.86	0.008
670.05	0.008
670.24	0.007
670.43	0.007
670.62	0.007
670.81	0.007
671.00	0.007
671.18	0.007
671.37	0.007
671.56	0.007
671.75	0.007
671.94	0.007
672.13	0.008
672.32	0.008
672.50	0.008
672.69	0.008
672.88	0.008
673.07	0.008
673.26	0.008
673.45	0.009
673.63	0.009
673.82	0.009
674.01	0.009
674.20	0.009
674.39	0.009
674.58	0.009
674.76	0.009
674.95	0.009
675.14	0.009
675.33	0.009
675.52	0.009
675.71	0.009
675.89	0.008
676.08	0.009
676.27	0.009
676.46	0.009
676.65	0.008
676.84	0.009
677.02	0.009
677.21	0.009
677.40	0.009
677.59	0.009
677.78	0.009
677.96	0.009
678.15	0.009
678.34	0.009
678.53	0.009
678.72	0.009
678.90	0.009
679.09	0.009
679.28	0.009
679.47	0.008
679.66	0.008
679.84	0.008
680.03	0.008
680.22	0.009
680.41	0.009
680.60	0.009
680.78	0.009
680.97	0.009
681.16	0.009
681.35	0.009
681.53	0.009
681.72	0.009
681.91	0.008
682.10	0.008
682.29	0.008
682.47	0.008
682.66	0.008
682.85	0.008
683.04	0.007
683.22	0.008
683.41	0.008
683.60	0.008
683.79	0.008
683.97	0.008
684.16	0.008
684.35	0.008
684.54	0.008
684.72	0.008
684.91	0.008
685.10	0.008
685.29	0.008
685.47	0.008
685.66	0.008
685.85	0.008
686.04	0.008
686.22	0.008
686.41	0.009
686.60	0.009
686.79	0.009
686.97	0.009
687.16	0.009
687.35	0.009
687.54	0.009
687.72	0.009
687.91	0.009
688.10	0.009
688.29	0.009
688.47	0.009
688.66	0.009
688.85	0.009
689.03	0.008
689.22	0.008
689.41	0.008
689.60	0.009
689.78	0.008
689.97	0.008
690.16	0.008
690.34	0.008
690.53	0.008
690.72	0.008
690.91	0.008
691.09	0.009
691.28	0.009
691.47	0.009
691.65	0.008
691.84	0.009
692.03	0.009
692.21	0.009
692.40	0.009
692.59	0.009
692.77	0.009
692.96	0.009
693.15	0.009
693.34	0.009
693.52	0.009
693.71	0.009
693.90	0.009
694.08	0.009
694.27	0.009
694.46	0.009
694.64	0.009
694.83	0.009
695.02	0.008
695.20	0.008
695.39	0.008
695.58	0.008
695.76	0.008
695.95	0.008
696.14	0.008
696.32	0.008
696.51	0.008
696.70	0.008
696.88	0.008
697.07	0.008
697.26	0.008
697.44	0.008
697.63	0.009
697.81	0.009
698.00	0.009
698.19	0.009
698.37	0.009
698.56	0.009
698.75	0.009
698.93	0.010
699.12	0.010
699.31	0.009
699.49	0.010
699.68	0.009
699.87	0.009
700.05	0.009
700.24	0.009
700.42	0.009
700.61	0.009
700.80	0.009
700.98	0.009
701.17	0.009
701.36	0.009
701.54	0.009
701.73	0.009
701.91	0.009
702.10	0.009
702.29	0.009
702.47	0.009
702.66	0.009
702.84	0.009
703.03	0.009
703.22	0.009
703.40	0.010
703.59	0.010
703.77	0.010
703.96	0.010
704.15	0.009
704.33	0.009
704.52	0.009
704.70	0.010
704.89	0.009
705.08	0.009
705.26	0.009
705.45	0.009
705.63	0.009
705.82	0.009
706.00	0.008
706.19	0.008
706.38	0.008
706.56	0.008
706.75	0.008
706.93	0.008
707.12	0.008
707.30	0.008
707.49	0.008
707.68	0.008
707.86	0.008
708.05	0.008
708.23	0.008
708.42	0.008
708.60	0.008
708.79	0.008
708.98	0.008
709.16	0.008
709.35	0.009
709.53	0.009
709.72	0.009
709.90	0.009
710.09	0.009
710.27	0.009
710.46	0.009
710.64	0.009
710.83	0.009
711.02	0.009
711.20	0.009
711.39	0.009
711.57	0.009
711.76	0.009
711.94	0.009
712.13	0.009
712.31	0.009
712.50	0.009
712.68	0.009
712.87	0.009
713.05	0.009
713.24	0.009
713.42	0.009
713.61	0.009
713.79	0.009
713.98	0.009
714.16	0.009
714.35	0.009
714.54	0.009
714.72	0.009
714.91	0.009
715.09	0.009
715.28	0.009
715.46	0.009
715.65	0.009
715.83	0.009
716.02	0.009
716.20	0.009
716.39	0.009
716.57	0.009
716.76	0.009
716.94	0.009
717.12	0.009
717.31	0.009
717.49	0.008
717.68	0.008
717.86	0.008
718.05	0.008
718.23	0.008
718.42	0.008
718.60	0.008
718.79	0.008
718.97	0.008
719.16	0.008
719.34	0.008
719.53	0.008
719.71	0.008
719.90	0.008
720.08	0.009
720.27	0.009
720.45	0.009
720.63	0.009
720.82	0.009
721.00	0.009
721.19	0.009
721.37	0.009
721.56	0.009
721.74	0.009
721.93	0.009
722.11	0.009
722.30	0.009
722.48	0.009
722.66	0.009
722.85	0.009
723.03	0.009
723.22	0.009
723.40	0.009
723.59	0.009
723.77	0.009
723.95	0.009
724.14	0.009
724.32	0.009
724.51	0.009
724.69	0.009
724.88	0.008
725.06	0.008
725.24	0.009
725.43	0.009
725.61	0.008
725.80	0.008
725.98	0.008
726.16	0.008
726.35	0.007
726.53	0.007
726.72	0.008
726.90	0.008
727.09	0.007
727.27	0.007
727.45	0.008
727.64	0.008
727.82	0.008
728.01	0.008
728.19	0.008
728.37	0.008
728.56	0.008
728.74	0.008
728.92	0.008
729.11	0.008
729.29	0.008
729.48	0.008
729.66	0.008
729.84	0.008
730.03	0.008
730.21	0.008
730.40	0.008
730.58	0.008
730.76	0.007
730.95	0.007
731.13	0.007
731.31	0.007
731.50	0.007
731.68	0.007
731.86	0.007
732.05	0.007
732.23	0.007
732.42	0.007
732.60	0.007
732.78	0.007
732.97	0.007
733.15	0.007
733.33	0.007
733.52	0.007
733.70	0.007
733.88	0.007
734.07	0.006
734.25	0.006
734.43	0.006
734.62	0.006
734.80	0.005
734.98	0.005
735.17	0.005
735.35	0.005
735.53	0.005
735.72	0.005
735.90	0.005
736.08	0.006
736.27	0.005
736.45	0.005
736.63	0.005
736.82	0.004
737.00	0.005
737.18	0.005
737.37	0.005
737.55	0.005
737.73	0.005
737.92	0.004
738.10	0.004
738.28	0.004
738.46	0.004
738.65	0.004
738.83	0.004
739.01	0.004
739.20	0.004
739.38	0.004
739.56	0.005
739.75	0.004
739.93	0.004
740.11	0.005
740.29	0.005
740.48	0.005
740.66	0.006
740.84	0.006
741.03	0.005
741.21	0.006
741.39	0.006
741.57	0.006
741.76	0.007
741.94	0.006
742.12	0.006
742.31	0.006
742.49	0.006
742.67	0.006
742.85	0.006
743.04	0.006
743.22	0.005
743.40	0.005
743.58	0.005
743.77	0.005
743.95	0.005
744.13	0.005
744.31	0.005
744.50	0.004
744.68	0.005
744.86	0.005
745.04	0.005
745.23	0.005
745.41	0.005
745.59	0.005
745.77	0.005
745.96	0.006
746.14	0.006
746.32	0.006
746.50	0.006
746.69	0.005
746.87	0.005
747.05	0.005
747.23	0.005
747.42	0.005
747.60	0.006
747.78	0.005
747.96	0.005
748.14	0.006
748.33	0.006
748.51	0.006
748.69	0.007
748.87	0.007
749.06	0.007
749.24	0.008
749.42	0.007
749.60	0.007
749.78	0.007
749.97	0.007
750.15	0.006
750.33	0.006
750.51	0.006
750.69	0.006
750.88	0.005
751.06	0.005
751.24	0.005
751.42	0.005
751.60	0.005
751.79	0.006
751.97	0.005
752.15	0.005
752.33	0.005
752.51	0.005
752.69	0.005
752.88	0.005
753.06	0.006
753.24	0.006
753.42	0.006
753.60	0.006
753.78	0.006
753.97	0.006
754.15	0.007
754.33	0.007
754.51	0.006
754.69	0.006
754.87	0.006
755.06	0.005
755.24	0.005
755.42	0.005
755.60	0.005
755.78	0.005
755.96	0.005
756.15	0.004
756.33	0.004
756.51	0.005
756.69	0.006
756.87	0.006
757.05	0.006
757.23	0.005
757.42	0.004
757.60	0.004
757.78	0.005
757.96	0.005
758.14	0.005
758.32	0.005
758.50	0.005
758.69	0.005
758.87	0.005
759.05	0.005
759.23	0.006
759.41	0.006
759.59	0.006
759.77	0.006
759.95	0.006
760.13	0.006
760.32	0.006
760.50	0.007
760.68	0.007
760.86	0.007
761.04	0.007
761.22	0.007
761.40	0.008
761.58	0.007
761.76	0.007
761.95	0.007
762.13	0.008
762.31	0.008
762.49	0.007
762.67	0.007
762.85	0.007
763.03	0.006
763.21	0.006
763.39	0.006
763.57	0.006
763.75	0.006
763.94	0.006
764.12	0.006
764.30	0.005
764.48	0.006
764.66	0.006
764.84	0.006
765.02	0.006
765.20	0.006
765.38	0.007
765.56	0.006
765.74	0.006
765.92	0.006
766.10	0.007
766.28	0.007
766.46	0.007
766.65	0.007
766.83	0.007
767.01	0.007
767.19	0.008
767.37	0.007
767.55	0.008
767.73	0.008
767.91	0.007
768.09	0.008
768.27	0.008
768.45	0.008
768.63	0.008
768.81	0.008
768.99	0.008
769.17	0.008
769.35	0.008
769.53	0.008
769.71	0.008
769.89	0.008
770.07	0.008
770.25	0.008
770.43	0.008
770.61	0.008
770.79	0.009
770.97	0.008
771.15	0.009
771.33	0.009
771.51	0.009
771.69	0.009
771.87	0.009
772.05	0.009
772.24	0.009
772.42	0.009
772.60	0.009
772.78	0.009
772.96	0.010
773.14	0.010
773.32	0.010
773.49	0.010
773.67	0.010
773.85	0.009
774.03	0.009
774.21	0.009
774.39	0.009
774.57	0.009
774.75	0.009
774.93	0.009
775.11	0.009
775.29	0.009
775.47	0.009
775.65	0.008
775.83	0.009
776.01	0.009
776.19	0.009
776.37	0.009
776.55	0.008
776.73	0.008
776.91	0.008
777.09	0.008
777.27	0.008
777.45	0.008
777.63	0.009
777.81	0.009
777.99	0.009
778.17	0.009
778.35	0.009
778.53	0.010
778.71	0.009
778.89	0.009
779.07	0.009
779.24	0.009
779.42	0.009
779.60	0.009
779.78	0.009
779.96	0.009
780.14	0.008
780.32	0.008
780.50	0.008
780.68	0.008
780.86	0.008
781.04	0.008
781.22	0.009
781.40	0.009
781.58	0.009
781.75	0.009
781.93	0.009
782.11	0.009
782.29	0.010
782.47	0.010
782.65	0.011
782.83	0.010
783.01	0.011
783.19	0.011
783.37	0.010
783.55	0.010
783.72	0.011
783.90	0.010
784.08	0.010
784.26	0.010
784.44	0.010
784.62	0.010
784.80	0.010
784.98	0.010
785.16	0.010
785.33	0.011
785.51	0.011
785.69	0.010
785.87	0.010
786.05	0.010
786.23	0.010
786.41	0.010
786.59	0.010
786.77	0.010
786.94	0.009
787.12	0.009
787.30	0.009
787.48	0.009
787.66	0.009
787.84	0.009
788.02	0.009
788.19	0.009
788.37	0.009
788.55	0.009
788.73	0.009
788.91	0.009
789.09	0.009
789.27	0.009
789.44	0.009
789.62	0.010
789.80	0.009
789.98	0.009
790.16	0.009
790.34	0.009
790.51	0.009
790.69	0.009
790.87	0.009
791.05	0.009
791.23	0.010
791.41	0.010
791.58	0.009
791.76	0.010
791.94	0.010
792.12	0.010
792.30	0.010
792.48	0.010
792.65	0.010
792.83	0.009
793.01	0.010
793.19	0.009
793.37	0.010
793.54	0.010
793.72	0.010
793.90	0.010
794.08	0.010
794.26	0.010
794.43	0.010
794.61	0.010
794.79	0.011
794.97	0.011
795.15	0.011
795.32	0.011
795.50	0.011
795.68	0.011
795.86	0.011
796.04	0.011
796.21	0.011
796.39	0.011
796.57	0.011
796.75	0.011
796.92	0.011
797.10	0.011
797.28	0.011
797.46	0.010
797.64	0.010
797.81	0.010
797.99	0.010
798.17	0.010
798.35	0.010
798.52	0.010
798.70	0.010
798.88	0.010
799.06	0.010
799.23	0.010
799.41	0.010
799.59	0.011
799.77	0.011
799.94	0.011
800.12	0.011
800.30	0.010
800.48	0.010
800.65	0.010
800.83	0.010
801.01	0.010
801.19	0.010
801.36	0.010
801.54	0.010
801.72	0.010
801.90	0.010
802.07	0.010
802.25	0.010
802.43	0.010
802.60	0.010
802.78	0.011
802.96	0.010
803.14	0.010
803.31	0.010
803.49	0.010
803.67	0.009
803.84	0.009
804.02	0.009
804.20	0.010
804.38	0.009
804.55	0.009
804.73	0.009
804.91	0.009
805.08	0.010
805.26	0.010
805.44	0.010
805.61	0.011
805.79	0.011
805.97	0.010
806.15	0.010
806.32	0.010
806.50	0.010
806.68	0.010
806.85	0.010
807.03	0.010
807.21	0.010
807.38	0.010
807.56	0.010
807.74	0.010
807.91	0.011
808.09	0.010
808.27	0.010
808.44	0.010
808.62	0.011
808.80	0.011
808.97	0.011
809.15	0.011
809.33	0.011
809.50	0.010
809.68	0.011
809.86	0.010
810.03	0.011
810.21	0.011
810.39	0.011
810.56	0.011
810.74	0.011
810.91	0.011
811.09	0.010
811.27	0.010
811.44	0.010
811.62	0.010
811.80	0.010
811.97	0.010
812.15	0.010
812.33	0.010
812.50	0.010
812.68	0.010
812.85	0.010
813.03	0.010
813.21	0.011
813.38	0.010
813.56	0.011
813.74	0.011
813.91	0.010
814.09	0.010
814.26	0.010
814.44	0.010
814.62	0.010
814.79	0.010
814.97	0.010
815.14	0.010
815.32	0.010
815.50	0.010
815.67	0.010
815.85	0.010
816.02	0.010
816.20	0.010
816.38	0.010
816.55	0.010
816.73	0.010
816.90	0.010
817.08	0.010
817.26	0.010
817.43	0.009
817.61	0.010
817.78	0.009
817.96	0.010
818.13	0.009
818.31	0.010
818.49	0.009
818.66	0.010
818.84	0.009
819.01	0.009
819.19	0.009
819.36	0.009
819.54	0.009
819.71	0.010
819.89	0.009
820.07	0.009
820.24	0.009
820.42	0.009
820.59	0.009
820.77	0.009
820.94	0.010
821.12	0.010
821.29	0.009
821.47	0.009
821.64	0.009
821.82	0.010
822.00	0.010
822.17	0.010
822.35	0.010
822.52	0.010
822.70	0.010
822.87	0.011
823.05	0.010
823.22	0.011
823.40	0.011
823.57	0.011
823.75	0.011
823.92	0.010
824.10	0.010
824.27	0.010
824.45	0.010
824.62	0.010
824.80	0.009
824.97	0.009
825.15	0.009
825.32	0.010
825.50	0.009
825.67	0.010
825.85	0.010
826.02	0.011
826.20	0.011
826.37	0.011
826.55	0.011
826.72	0.012
826.90	0.012
827.07	0.012
827.25	0.012
827.42	0.012
827.60	0.011
827.77	0.012
827.95	0.011
828.12	0.011
828.30	0.011
828.47	0.011
828.65	0.011
828.82	0.011
829.00	0.011
829.17	0.011
829.34	0.011
829.52	0.011
829.69	0.011
829.87	0.011
830.04	0.011
830.22	0.011
830.39	0.010
830.57	0.010
830.74	0.010
830.92	0.010
831.09	0.010
831.26	0.011
831.44	0.011
831.61	0.012
831.79	0.012
831.96	0.013
832.14	0.013
832.31	0.013
832.49	0.012
832.66	0.012
832.83	0.013
833.01	0.012
833.18	0.012
833.36	0.010
833.53	0.009
833.70	0.008
833.88	0.008
834.05	0.007
834.23	0.006
834.40	0.006
834.58	0.005
834.75	0.004
834.92	0.004
835.10	0.003
835.27	0.002
835.45	0.002
835.62	0.002
835.79	0.002
835.97	0.003
836.14	0.003
836.32	0.004
836.49	0.005
836.66	0.005
836.84	0.005
837.01	0.006
837.18	0.008
837.36	0.008
837.53	0.009
837.71	0.010
837.88	0.011
838.05	0.010
838.23	0.010
838.40	0.010
838.58	0.009
838.75	0.010
838.92	0.009
839.10	0.008
839.27	0.007
839.44	0.007
839.62	0.007
839.79	0.006
839.96	0.009
840.14	0.009
840.31	0.008
840.48	0.009
840.66	0.011
840.83	0.011
841.01	0.012
841.18	0.012
841.35	0.011
841.53	0.009
841.70	0.010
841.87	0.009
842.05	0.006
842.22	0.006
842.39	0.007
842.57	0.003
842.74	0.006
842.91	0.006
843.09	0.007
843.26	0.008
843.43	0.010
843.60	0.009
843.78	0.009
843.95	0.011
844.12	0.012
844.30	0.012
844.47	0.013
844.64	0.012
844.82	0.008
844.99	0.008
845.16	0.006
845.34	0.003
845.51	0.006
845.68	0.006
845.85	0.005
846.03	0.005
846.20	0.005
846.37	0.006
846.55	0.009
846.72	0.013
846.89	0.013
847.06	0.014
847.24	0.016
847.41	0.014
847.58	0.013
847.76	0.016
847.93	0.015
848.10	0.014
848.27	0.012
848.45	0.010
848.62	0.009
848.79	0.008
848.97	0.010
849.14	0.009
849.31	0.010
849.48	0.009
849.66	0.009
849.83	0.009
850.00	0.011
850.17	0.010
850.35	0.008
850.52	0.008
850.69	0.010
850.86	0.009
851.04	0.010
851.21	0.012
851.38	0.011
851.55	0.008
851.72	0.008
851.90	0.008
852.07	0.009
852.24	0.009
852.41	0.008
852.59	0.007
852.76	0.006
852.93	0.007
853.10	0.006
853.28	0.006
853.45	0.006
853.62	0.007
853.79	0.007
853.96	0.008
854.14	0.010
854.31	0.012
854.48	0.014
854.65	0.013
854.82	0.012
855.00	0.015
855.17	0.017
855.34	0.018
855.51	0.019
855.68	0.019
855.86	0.019
856.03	0.017
856.20	0.017
856.37	0.013
856.54	0.014
856.72	0.012
856.89	0.008
857.06	0.006
857.23	0.006
857.40	0.006
857.57	0.006
857.75	0.004
857.92	0.008
858.09	0.008
858.26	0.008
858.43	0.006
858.60	0.008
858.78	0.012
858.95	0.008
859.12	0.009
859.29	0.007
859.46	0.008
859.63	0.012
859.81	0.011
859.98	0.012
860.15	0.016
860.32	0.018
860.49	0.016
860.66	0.013
860.83	0.015
861.01	0.014
861.18	0.014
861.35	0.014
861.52	0.011
861.69	0.007
861.86	0.006
862.03	0.004
862.21	0.007
862.38	0.008
862.55	0.012
862.72	0.015
862.89	0.016
863.06	0.014
863.23	0.015
863.40	0.014
863.58	0.015
863.75	0.015
863.92	0.012
864.09	0.010
864.26	0.008
864.43	0.005
864.60	0.005
864.77	0.005
864.94	0.012
865.11	0.010
865.29	0.012
865.46	0.014
865.63	0.014
865.80	0.015
865.97	0.017
866.14	0.019
866.31	0.018
866.48	0.017
866.65	0.017
866.82	0.015
866.99	0.010
867.16	0.007
867.34	0.006
867.51	0.007
867.68	0.010
867.85	0.005
868.02	-0.001
868.19	-0.001
868.36	0.000
868.53	-0.001
868.70	-0.004
868.87	-0.001
869.04	0.003
869.21	0.007
869.38	0.006
869.55	0.006
869.72	0.008
869.89	0.015
870.06	0.017
870.24	0.022
870.41	0.018
870.58	0.020
870.75	0.023
870.92	0.024
871.09	0.019
871.26	0.023
871.43	0.025
871.60	0.030
871.77	0.026
871.94	0.031
872.11	0.026
872.28	0.030
872.45	0.027
872.62	0.029
872.79	0.022
872.96	0.024
873.13	0.014
873.30	0.010
873.47	0.009
873.64	0.012
873.81	0.010
873.98	0.014
874.15	0.018
874.32	0.015
874.49	0.017
874.66	0.019
874.83	0.021
875.00	0.027
875.17	0.025
875.34	0.023
875.51	0.020
875.68	0.022
875.85	0.012
876.02	0.006
876.19	0.010
876.36	0.008
876.53	0.010
876.70	0.016
876.87	0.019
877.04	0.024
877.21	0.024
877.38	0.026
877.55	0.025
877.72	0.031
877.89	0.033
878.06	0.028
878.23	0.024
878.39	0.026
878.56	0.027
878.73	0.022
878.90	0.019
879.07	0.017
879.24	0.016
879.41	0.015
879.58	0.014
879.75	0.012
879.92	0.015
880.09	0.018
880.26	0.018
880.43	0.012
880.60	0.013
880.77	0.020
880.94	0.022
881.11	0.028
881.27	0.030
881.44	0.034
881.61	0.033
881.78	0.033
881.95	0.030
882.12	0.027
882.29	0.028
882.46	0.030
882.63	0.026
882.80	0.025
882.97	0.020
883.14	0.010
883.30	0.004
883.47	0.003
883.64	0.005
883.81	0.010
883.98	0.010
884.15	0.014
884.32	0.013
884.49	0.009
884.66	0.004
884.82	0.008
884.99	0.012
885.16	0.019
885.33	0.023
885.50	0.023
885.67	0.022
885.84	0.019
886.01	0.006
886.17	0.004
886.34	0.011
886.51	0.018
886.68	0.009
886.85	0.014
887.02	0.009
887.19	0.003
887.36	-0.009
887.52	-0.014
887.69	-0.002
887.86	0.004
888.03	0.005
888.20	-0.003
888.37	-0.006
888.54	-0.006
888.70	-0.012
888.87	-0.004
889.04	0.006
889.21	0.019
889.38	0.024
889.55	0.017
889.71	0.136
889.88	0.018
890.05	-0.023
890.22	0.047
890.39	0.008
>>>>>End Processed Spectral Data<<<<<
