SpectraSuite Data File
++++++++++++++++++++++++++++++++++++
Date: Mon Jun 15 09:36:50 PDT 2015
User: introlabs
Dark Spectrum Present: Yes
Reference Spectrum Present: Yes
Number of Sampled Component Spectra: 1
Spectrometers: USB4H08886
Integration Time (usec): 44366 (USB4H08886)
Spectra Averaged: 20 (USB4H08886)
Boxcar Smoothing: 5 (USB4H08886)
Correct for Electrical Dark: Yes (USB4H08886)
Strobe/Lamp Enabled: No (USB4H08886)
Correct for Detector Non-linearity: Yes (USB4H08886)
Correct for Stray Light: Yes (USB4H08886)
Number of Pixels in Processed Spectrum: 3648
>>>>>Begin Processed Spectral Data<<<<<
178.14	-0.000
178.36	-0.000
178.57	-0.000
178.79	-0.000
179.01	-0.803
179.22	-0.000
179.44	-0.000
179.65	-0.272
179.87	-0.047
180.08	0.164
180.30	0.140
180.52	0.013
180.73	0.010
180.95	0.010
181.16	0.011
181.38	0.021
181.59	0.011
181.81	0.001
182.03	0.015
182.24	0.034
182.46	0.041
182.67	0.037
182.89	0.038
183.10	0.043
183.32	0.043
183.54	0.040
183.75	0.047
183.97	0.055
184.18	0.051
184.40	0.048
184.61	0.044
184.83	0.041
185.04	0.044
185.26	0.042
185.48	0.036
185.69	0.035
185.91	0.041
186.12	0.032
186.34	0.035
186.55	0.034
186.77	0.030
186.98	0.029
187.20	0.023
187.42	0.027
187.63	0.032
187.85	0.037
188.06	0.041
188.28	0.040
188.49	0.039
188.71	0.036
188.92	0.037
189.14	0.032
189.36	0.032
189.57	0.037
189.79	0.025
190.00	0.025
190.22	0.020
190.43	0.019
190.65	0.015
190.86	0.025
191.08	0.020
191.29	0.018
191.51	0.028
191.72	0.023
191.94	0.022
192.16	0.027
192.37	0.030
192.59	0.031
192.80	0.029
193.02	0.040
193.23	0.037
193.45	0.035
193.66	0.038
193.88	0.034
194.09	0.037
194.31	0.034
194.52	0.029
194.74	0.026
194.95	0.022
195.17	0.027
195.38	0.011
195.60	0.003
195.81	0.006
196.03	0.007
196.25	0.021
196.46	0.026
196.68	0.019
196.89	0.018
197.11	0.023
197.32	0.021
197.54	0.013
197.75	0.029
197.97	0.034
198.18	0.031
198.40	0.030
198.61	0.011
198.83	0.006
199.04	0.019
199.26	0.020
199.47	0.007
199.69	0.014
199.90	0.023
200.12	0.013
200.33	0.018
200.55	0.021
200.76	0.013
200.98	0.016
201.19	0.016
201.41	0.008
201.62	0.013
201.84	0.028
202.05	0.031
202.27	0.026
202.48	0.024
202.70	0.023
202.91	0.022
203.13	0.035
203.34	0.034
203.56	0.027
203.77	0.034
203.99	0.025
204.20	0.015
204.42	0.009
204.63	0.012
204.85	0.014
205.06	0.011
205.28	0.013
205.49	0.008
205.71	0.017
205.92	0.021
206.14	0.017
206.35	0.034
206.56	0.040
206.78	0.038
206.99	0.037
207.21	0.042
207.42	0.041
207.64	0.041
207.85	0.043
208.07	0.044
208.28	0.049
208.50	0.057
208.71	0.046
208.93	0.049
209.14	0.048
209.36	0.045
209.57	0.045
209.79	0.048
210.00	0.045
210.22	0.050
210.43	0.040
210.64	0.037
210.86	0.025
211.07	0.022
211.29	0.013
211.50	0.012
211.72	0.013
211.93	0.009
212.15	0.013
212.36	0.011
212.58	0.009
212.79	0.010
213.01	0.002
213.22	0.008
213.43	0.012
213.65	0.013
213.86	0.013
214.08	0.016
214.29	0.020
214.51	0.014
214.72	0.019
214.94	0.017
215.15	0.023
215.36	0.031
215.58	0.028
215.79	0.023
216.01	0.030
216.22	0.034
216.44	0.029
216.65	0.024
216.87	0.023
217.08	0.022
217.29	0.031
217.51	0.026
217.72	0.020
217.94	0.030
218.15	0.037
218.37	0.033
218.58	0.034
218.80	0.044
219.01	0.043
219.22	0.043
219.44	0.042
219.65	0.031
219.87	0.038
220.08	0.040
220.30	0.026
220.51	0.023
220.72	0.021
220.94	0.016
221.15	0.009
221.37	0.006
221.58	0.010
221.79	0.015
222.01	0.015
222.22	0.008
222.44	0.008
222.65	0.016
222.87	0.017
223.08	0.015
223.29	0.013
223.51	0.011
223.72	0.011
223.94	0.007
224.15	0.003
224.36	0.005
224.58	0.004
224.79	0.006
225.01	0.002
225.22	0.002
225.44	0.002
225.65	0.006
225.86	0.009
226.08	0.012
226.29	0.007
226.51	0.009
226.72	0.010
226.93	0.015
227.15	0.010
227.36	0.009
227.58	0.004
227.79	0.008
228.00	0.009
228.22	0.001
228.43	-0.000
228.65	0.004
228.86	0.001
229.07	-0.000
229.29	-0.003
229.50	-0.002
229.72	-0.003
229.93	-0.003
230.14	-0.006
230.36	-0.009
230.57	-0.006
230.78	-0.009
231.00	-0.014
231.21	-0.015
231.43	-0.017
231.64	-0.018
231.85	-0.015
232.07	-0.014
232.28	-0.015
232.50	-0.017
232.71	-0.019
232.92	-0.020
233.14	-0.019
233.35	-0.018
233.56	-0.019
233.78	-0.020
233.99	-0.022
234.21	-0.026
234.42	-0.026
234.63	-0.026
234.85	-0.027
235.06	-0.026
235.27	-0.026
235.49	-0.027
235.70	-0.029
235.91	-0.030
236.13	-0.029
236.34	-0.029
236.56	-0.028
236.77	-0.030
236.98	-0.029
237.20	-0.029
237.41	-0.028
237.62	-0.027
237.84	-0.028
238.05	-0.026
238.26	-0.026
238.48	-0.027
238.69	-0.026
238.91	-0.026
239.12	-0.026
239.33	-0.025
239.55	-0.024
239.76	-0.024
239.97	-0.023
240.19	-0.022
240.40	-0.022
240.61	-0.021
240.83	-0.021
241.04	-0.021
241.25	-0.020
241.47	-0.020
241.68	-0.019
241.89	-0.019
242.11	-0.019
242.32	-0.018
242.53	-0.018
242.75	-0.017
242.96	-0.016
243.17	-0.015
243.39	-0.014
243.60	-0.013
243.81	-0.013
244.03	-0.013
244.24	-0.012
244.45	-0.011
244.67	-0.011
244.88	-0.010
245.09	-0.010
245.31	-0.009
245.52	-0.009
245.73	-0.008
245.95	-0.008
246.16	-0.007
246.37	-0.007
246.59	-0.006
246.80	-0.007
247.01	-0.006
247.23	-0.006
247.44	-0.006
247.65	-0.006
247.87	-0.005
248.08	-0.006
248.29	-0.006
248.51	-0.006
248.72	-0.005
248.93	-0.005
249.15	-0.004
249.36	-0.004
249.57	-0.005
249.78	-0.004
250.00	-0.004
250.21	-0.004
250.42	-0.003
250.64	-0.003
250.85	-0.002
251.06	-0.003
251.28	-0.003
251.49	-0.002
251.70	-0.002
251.92	-0.001
252.13	-0.001
252.34	-0.001
252.55	-0.001
252.77	-0.001
252.98	-0.001
253.19	-0.001
253.41	-0.000
253.62	-0.000
253.83	0.000
254.05	0.000
254.26	-0.000
254.47	-0.000
254.68	-0.000
254.90	-0.000
255.11	0.000
255.32	0.001
255.54	0.000
255.75	0.000
255.96	0.001
256.17	0.000
256.39	0.001
256.60	0.001
256.81	0.001
257.03	0.001
257.24	0.001
257.45	0.001
257.66	0.001
257.88	0.001
258.09	0.001
258.30	0.001
258.51	0.001
258.73	0.000
258.94	0.000
259.15	0.000
259.37	-0.000
259.58	-0.001
259.79	-0.001
260.00	-0.001
260.22	-0.001
260.43	-0.001
260.64	-0.001
260.85	-0.001
261.07	-0.001
261.28	-0.001
261.49	-0.002
261.71	-0.002
261.92	-0.002
262.13	-0.002
262.34	-0.002
262.56	-0.003
262.77	-0.003
262.98	-0.003
263.19	-0.003
263.41	-0.004
263.62	-0.004
263.83	-0.005
264.04	-0.005
264.26	-0.005
264.47	-0.006
264.68	-0.006
264.89	-0.006
265.11	-0.006
265.32	-0.006
265.53	-0.007
265.74	-0.007
265.96	-0.007
266.17	-0.007
266.38	-0.007
266.59	-0.007
266.81	-0.007
267.02	-0.007
267.23	-0.008
267.44	-0.008
267.65	-0.009
267.87	-0.009
268.08	-0.009
268.29	-0.009
268.50	-0.010
268.72	-0.010
268.93	-0.010
269.14	-0.011
269.35	-0.011
269.57	-0.011
269.78	-0.011
269.99	-0.012
270.20	-0.012
270.41	-0.012
270.63	-0.012
270.84	-0.012
271.05	-0.013
271.26	-0.013
271.48	-0.013
271.69	-0.013
271.90	-0.014
272.11	-0.014
272.32	-0.014
272.54	-0.015
272.75	-0.015
272.96	-0.015
273.17	-0.015
273.39	-0.015
273.60	-0.016
273.81	-0.016
274.02	-0.016
274.23	-0.016
274.45	-0.016
274.66	-0.017
274.87	-0.017
275.08	-0.017
275.29	-0.017
275.51	-0.017
275.72	-0.017
275.93	-0.017
276.14	-0.017
276.35	-0.017
276.57	-0.017
276.78	-0.017
276.99	-0.017
277.20	-0.016
277.41	-0.016
277.63	-0.016
277.84	-0.016
278.05	-0.016
278.26	-0.016
278.47	-0.016
278.69	-0.016
278.90	-0.015
279.11	-0.015
279.32	-0.015
279.53	-0.015
279.74	-0.015
279.96	-0.014
280.17	-0.014
280.38	-0.014
280.59	-0.014
280.80	-0.014
281.02	-0.014
281.23	-0.013
281.44	-0.013
281.65	-0.013
281.86	-0.013
282.07	-0.013
282.29	-0.013
282.50	-0.012
282.71	-0.012
282.92	-0.012
283.13	-0.012
283.35	-0.012
283.56	-0.011
283.77	-0.011
283.98	-0.011
284.19	-0.011
284.40	-0.010
284.62	-0.010
284.83	-0.010
285.04	-0.009
285.25	-0.008
285.46	-0.008
285.67	-0.007
285.88	-0.006
286.10	-0.006
286.31	-0.005
286.52	-0.004
286.73	-0.004
286.94	-0.003
287.15	-0.002
287.37	-0.002
287.58	-0.001
287.79	-0.000
288.00	-0.000
288.21	0.000
288.42	0.001
288.63	0.002
288.85	0.002
289.06	0.003
289.27	0.003
289.48	0.003
289.69	0.004
289.90	0.004
290.11	0.005
290.33	0.006
290.54	0.006
290.75	0.007
290.96	0.007
291.17	0.007
291.38	0.008
291.59	0.008
291.81	0.008
292.02	0.009
292.23	0.009
292.44	0.009
292.65	0.009
292.86	0.009
293.07	0.010
293.28	0.010
293.50	0.010
293.71	0.011
293.92	0.011
294.13	0.011
294.34	0.011
294.55	0.012
294.76	0.012
294.97	0.012
295.19	0.012
295.40	0.012
295.61	0.012
295.82	0.012
296.03	0.012
296.24	0.012
296.45	0.012
296.66	0.012
296.87	0.012
297.09	0.012
297.30	0.012
297.51	0.012
297.72	0.012
297.93	0.012
298.14	0.012
298.35	0.012
298.56	0.012
298.77	0.012
298.99	0.013
299.20	0.013
299.41	0.013
299.62	0.013
299.83	0.013
300.04	0.013
300.25	0.013
300.46	0.013
300.67	0.013
300.88	0.013
301.10	0.013
301.31	0.013
301.52	0.013
301.73	0.013
301.94	0.013
302.15	0.013
302.36	0.013
302.57	0.013
302.78	0.012
302.99	0.012
303.20	0.012
303.41	0.012
303.63	0.012
303.84	0.012
304.05	0.012
304.26	0.012
304.47	0.012
304.68	0.012
304.89	0.013
305.10	0.013
305.31	0.013
305.52	0.013
305.73	0.013
305.94	0.013
306.15	0.013
306.37	0.013
306.58	0.013
306.79	0.013
307.00	0.013
307.21	0.013
307.42	0.013
307.63	0.013
307.84	0.013
308.05	0.013
308.26	0.013
308.47	0.013
308.68	0.013
308.89	0.013
309.10	0.013
309.31	0.013
309.52	0.013
309.73	0.013
309.95	0.012
310.16	0.012
310.37	0.012
310.58	0.012
310.79	0.012
311.00	0.012
311.21	0.012
311.42	0.012
311.63	0.012
311.84	0.012
312.05	0.012
312.26	0.013
312.47	0.012
312.68	0.013
312.89	0.013
313.10	0.013
313.31	0.013
313.52	0.013
313.73	0.013
313.94	0.013
314.15	0.013
314.36	0.013
314.57	0.013
314.78	0.013
314.99	0.012
315.21	0.013
315.42	0.012
315.63	0.012
315.84	0.012
316.05	0.012
316.26	0.012
316.47	0.012
316.68	0.012
316.89	0.012
317.10	0.012
317.31	0.013
317.52	0.012
317.73	0.013
317.94	0.013
318.15	0.013
318.36	0.013
318.57	0.013
318.78	0.013
318.99	0.013
319.20	0.013
319.41	0.013
319.62	0.013
319.83	0.013
320.04	0.013
320.25	0.013
320.46	0.012
320.67	0.012
320.88	0.012
321.09	0.012
321.30	0.012
321.51	0.012
321.72	0.012
321.93	0.012
322.14	0.012
322.35	0.012
322.56	0.012
322.77	0.012
322.98	0.012
323.19	0.012
323.40	0.012
323.61	0.012
323.82	0.012
324.03	0.013
324.24	0.013
324.45	0.013
324.66	0.013
324.87	0.013
325.08	0.013
325.29	0.013
325.50	0.012
325.71	0.013
325.92	0.013
326.13	0.013
326.34	0.012
326.55	0.012
326.76	0.012
326.97	0.013
327.18	0.013
327.39	0.013
327.60	0.013
327.80	0.013
328.01	0.013
328.22	0.013
328.43	0.013
328.64	0.013
328.85	0.013
329.06	0.013
329.27	0.013
329.48	0.013
329.69	0.012
329.90	0.012
330.11	0.013
330.32	0.013
330.53	0.013
330.74	0.012
330.95	0.013
331.16	0.013
331.37	0.013
331.58	0.013
331.79	0.013
332.00	0.013
332.21	0.013
332.42	0.013
332.63	0.013
332.83	0.013
333.04	0.013
333.25	0.013
333.46	0.013
333.67	0.013
333.88	0.013
334.09	0.013
334.30	0.013
334.51	0.013
334.72	0.013
334.93	0.013
335.14	0.013
335.35	0.014
335.56	0.013
335.77	0.013
335.98	0.013
336.18	0.013
336.39	0.014
336.60	0.013
336.81	0.013
337.02	0.013
337.23	0.014
337.44	0.014
337.65	0.014
337.86	0.014
338.07	0.014
338.28	0.014
338.49	0.014
338.70	0.014
338.91	0.014
339.11	0.014
339.32	0.014
339.53	0.014
339.74	0.014
339.95	0.014
340.16	0.014
340.37	0.014
340.58	0.014
340.79	0.014
341.00	0.014
341.21	0.014
341.41	0.014
341.62	0.014
341.83	0.014
342.04	0.014
342.25	0.014
342.46	0.014
342.67	0.014
342.88	0.014
343.09	0.014
343.30	0.014
343.50	0.015
343.71	0.015
343.92	0.015
344.13	0.015
344.34	0.015
344.55	0.015
344.76	0.015
344.97	0.015
345.18	0.015
345.38	0.015
345.59	0.015
345.80	0.015
346.01	0.015
346.22	0.015
346.43	0.015
346.64	0.015
346.85	0.015
347.06	0.015
347.26	0.015
347.47	0.015
347.68	0.015
347.89	0.015
348.10	0.016
348.31	0.015
348.52	0.015
348.73	0.015
348.93	0.015
349.14	0.015
349.35	0.015
349.56	0.015
349.77	0.015
349.98	0.015
350.19	0.015
350.39	0.015
350.60	0.015
350.81	0.015
351.02	0.015
351.23	0.015
351.44	0.016
351.65	0.016
351.86	0.016
352.06	0.016
352.27	0.016
352.48	0.016
352.69	0.016
352.90	0.016
353.11	0.016
353.31	0.017
353.52	0.016
353.73	0.017
353.94	0.016
354.15	0.016
354.36	0.016
354.57	0.016
354.77	0.016
354.98	0.016
355.19	0.016
355.40	0.017
355.61	0.017
355.82	0.017
356.02	0.017
356.23	0.017
356.44	0.017
356.65	0.017
356.86	0.017
357.07	0.017
357.27	0.017
357.48	0.017
357.69	0.017
357.90	0.017
358.11	0.017
358.32	0.017
358.52	0.017
358.73	0.017
358.94	0.017
359.15	0.017
359.36	0.017
359.56	0.017
359.77	0.017
359.98	0.017
360.19	0.017
360.40	0.017
360.61	0.017
360.81	0.017
361.02	0.017
361.23	0.017
361.44	0.017
361.65	0.017
361.85	0.017
362.06	0.017
362.27	0.017
362.48	0.017
362.69	0.017
362.89	0.017
363.10	0.017
363.31	0.017
363.52	0.017
363.73	0.017
363.93	0.017
364.14	0.017
364.35	0.017
364.56	0.017
364.77	0.017
364.97	0.017
365.18	0.017
365.39	0.017
365.60	0.017
365.81	0.017
366.01	0.017
366.22	0.017
366.43	0.017
366.64	0.017
366.84	0.017
367.05	0.017
367.26	0.017
367.47	0.017
367.68	0.017
367.88	0.017
368.09	0.017
368.30	0.018
368.51	0.018
368.71	0.018
368.92	0.018
369.13	0.018
369.34	0.018
369.55	0.018
369.75	0.018
369.96	0.018
370.17	0.018
370.38	0.018
370.58	0.018
370.79	0.018
371.00	0.018
371.21	0.018
371.41	0.018
371.62	0.018
371.83	0.018
372.04	0.018
372.24	0.018
372.45	0.018
372.66	0.018
372.87	0.018
373.07	0.018
373.28	0.018
373.49	0.018
373.70	0.018
373.90	0.018
374.11	0.018
374.32	0.018
374.53	0.017
374.73	0.018
374.94	0.018
375.15	0.018
375.36	0.018
375.56	0.018
375.77	0.018
375.98	0.018
376.19	0.018
376.39	0.018
376.60	0.018
376.81	0.018
377.02	0.018
377.22	0.018
377.43	0.018
377.64	0.018
377.84	0.018
378.05	0.018
378.26	0.018
378.47	0.018
378.67	0.018
378.88	0.018
379.09	0.018
379.30	0.018
379.50	0.018
379.71	0.018
379.92	0.018
380.12	0.018
380.33	0.018
380.54	0.018
380.75	0.018
380.95	0.018
381.16	0.018
381.37	0.018
381.57	0.018
381.78	0.018
381.99	0.018
382.20	0.018
382.40	0.018
382.61	0.018
382.82	0.018
383.02	0.018
383.23	0.018
383.44	0.018
383.64	0.018
383.85	0.018
384.06	0.018
384.27	0.018
384.47	0.018
384.68	0.018
384.89	0.018
385.09	0.018
385.30	0.018
385.51	0.018
385.71	0.018
385.92	0.018
386.13	0.018
386.33	0.018
386.54	0.018
386.75	0.018
386.95	0.018
387.16	0.018
387.37	0.018
387.58	0.018
387.78	0.018
387.99	0.018
388.20	0.018
388.40	0.018
388.61	0.018
388.82	0.018
389.02	0.018
389.23	0.018
389.44	0.018
389.64	0.018
389.85	0.018
390.06	0.017
390.26	0.017
390.47	0.017
390.68	0.017
390.88	0.017
391.09	0.017
391.30	0.017
391.50	0.017
391.71	0.017
391.92	0.017
392.12	0.017
392.33	0.017
392.53	0.017
392.74	0.017
392.95	0.018
393.15	0.018
393.36	0.018
393.57	0.018
393.77	0.018
393.98	0.018
394.19	0.018
394.39	0.018
394.60	0.018
394.81	0.018
395.01	0.018
395.22	0.018
395.43	0.018
395.63	0.018
395.84	0.018
396.04	0.018
396.25	0.017
396.46	0.017
396.66	0.017
396.87	0.017
397.08	0.017
397.28	0.017
397.49	0.017
397.69	0.017
397.90	0.017
398.11	0.017
398.31	0.017
398.52	0.018
398.73	0.018
398.93	0.018
399.14	0.018
399.34	0.018
399.55	0.018
399.76	0.018
399.96	0.018
400.17	0.018
400.37	0.018
400.58	0.018
400.79	0.018
400.99	0.018
401.20	0.018
401.41	0.018
401.61	0.018
401.82	0.018
402.02	0.018
402.23	0.018
402.44	0.018
402.64	0.018
402.85	0.018
403.05	0.018
403.26	0.018
403.47	0.017
403.67	0.017
403.88	0.017
404.08	0.017
404.29	0.017
404.50	0.017
404.70	0.017
404.91	0.017
405.11	0.017
405.32	0.017
405.52	0.017
405.73	0.017
405.94	0.017
406.14	0.017
406.35	0.017
406.55	0.017
406.76	0.017
406.97	0.017
407.17	0.017
407.38	0.017
407.58	0.017
407.79	0.017
407.99	0.017
408.20	0.017
408.41	0.017
408.61	0.017
408.82	0.017
409.02	0.017
409.23	0.017
409.43	0.017
409.64	0.017
409.84	0.017
410.05	0.017
410.26	0.017
410.46	0.017
410.67	0.017
410.87	0.017
411.08	0.017
411.28	0.017
411.49	0.017
411.69	0.017
411.90	0.017
412.11	0.017
412.31	0.017
412.52	0.017
412.72	0.017
412.93	0.017
413.13	0.017
413.34	0.017
413.54	0.017
413.75	0.017
413.95	0.017
414.16	0.017
414.37	0.017
414.57	0.017
414.78	0.017
414.98	0.017
415.19	0.017
415.39	0.017
415.60	0.017
415.80	0.017
416.01	0.017
416.21	0.017
416.42	0.017
416.62	0.017
416.83	0.017
417.03	0.016
417.24	0.016
417.44	0.016
417.65	0.016
417.86	0.016
418.06	0.016
418.27	0.016
418.47	0.016
418.68	0.016
418.88	0.016
419.09	0.016
419.29	0.016
419.50	0.016
419.70	0.016
419.91	0.016
420.11	0.016
420.32	0.016
420.52	0.016
420.73	0.016
420.93	0.016
421.14	0.016
421.34	0.016
421.55	0.016
421.75	0.016
421.96	0.016
422.16	0.016
422.37	0.016
422.57	0.016
422.78	0.017
422.98	0.017
423.19	0.017
423.39	0.017
423.60	0.017
423.80	0.017
424.01	0.017
424.21	0.017
424.42	0.017
424.62	0.017
424.83	0.017
425.03	0.017
425.23	0.017
425.44	0.017
425.64	0.017
425.85	0.017
426.05	0.017
426.26	0.016
426.46	0.016
426.67	0.016
426.87	0.016
427.08	0.016
427.28	0.016
427.49	0.016
427.69	0.016
427.90	0.016
428.10	0.016
428.31	0.016
428.51	0.016
428.71	0.016
428.92	0.016
429.12	0.016
429.33	0.016
429.53	0.016
429.74	0.016
429.94	0.016
430.15	0.016
430.35	0.016
430.56	0.016
430.76	0.017
430.96	0.017
431.17	0.017
431.37	0.017
431.58	0.017
431.78	0.017
431.99	0.017
432.19	0.017
432.40	0.017
432.60	0.017
432.80	0.017
433.01	0.017
433.21	0.017
433.42	0.017
433.62	0.017
433.83	0.017
434.03	0.017
434.23	0.017
434.44	0.017
434.64	0.017
434.85	0.017
435.05	0.017
435.26	0.016
435.46	0.016
435.66	0.016
435.87	0.016
436.07	0.016
436.28	0.016
436.48	0.016
436.69	0.016
436.89	0.016
437.09	0.016
437.30	0.016
437.50	0.016
437.71	0.016
437.91	0.016
438.11	0.016
438.32	0.016
438.52	0.016
438.73	0.016
438.93	0.016
439.13	0.016
439.34	0.016
439.54	0.016
439.75	0.016
439.95	0.016
440.15	0.016
440.36	0.016
440.56	0.016
440.77	0.016
440.97	0.016
441.17	0.016
441.38	0.016
441.58	0.016
441.79	0.016
441.99	0.016
442.19	0.016
442.40	0.016
442.60	0.016
442.81	0.016
443.01	0.016
443.21	0.016
443.42	0.016
443.62	0.016
443.82	0.016
444.03	0.016
444.23	0.016
444.44	0.016
444.64	0.016
444.84	0.016
445.05	0.016
445.25	0.016
445.45	0.016
445.66	0.016
445.86	0.016
446.06	0.016
446.27	0.016
446.47	0.016
446.68	0.016
446.88	0.016
447.08	0.016
447.29	0.016
447.49	0.016
447.69	0.016
447.90	0.016
448.10	0.016
448.30	0.016
448.51	0.016
448.71	0.016
448.91	0.016
449.12	0.016
449.32	0.016
449.52	0.016
449.73	0.016
449.93	0.016
450.14	0.016
450.34	0.016
450.54	0.016
450.75	0.016
450.95	0.016
451.15	0.016
451.36	0.016
451.56	0.016
451.76	0.016
451.97	0.016
452.17	0.016
452.37	0.016
452.58	0.016
452.78	0.016
452.98	0.016
453.19	0.016
453.39	0.016
453.59	0.016
453.79	0.016
454.00	0.016
454.20	0.016
454.40	0.016
454.61	0.016
454.81	0.016
455.01	0.016
455.22	0.016
455.42	0.016
455.62	0.016
455.83	0.016
456.03	0.016
456.23	0.016
456.44	0.016
456.64	0.016
456.84	0.016
457.04	0.016
457.25	0.016
457.45	0.015
457.65	0.016
457.86	0.016
458.06	0.015
458.26	0.016
458.47	0.015
458.67	0.015
458.87	0.015
459.07	0.016
459.28	0.016
459.48	0.016
459.68	0.016
459.89	0.016
460.09	0.016
460.29	0.016
460.49	0.016
460.70	0.016
460.90	0.016
461.10	0.016
461.31	0.016
461.51	0.016
461.71	0.016
461.91	0.016
462.12	0.016
462.32	0.016
462.52	0.016
462.72	0.016
462.93	0.016
463.13	0.015
463.33	0.015
463.53	0.015
463.74	0.015
463.94	0.015
464.14	0.015
464.35	0.015
464.55	0.015
464.75	0.015
464.95	0.015
465.16	0.015
465.36	0.015
465.56	0.015
465.76	0.015
465.97	0.015
466.17	0.015
466.37	0.015
466.57	0.015
466.78	0.015
466.98	0.016
467.18	0.016
467.38	0.016
467.59	0.016
467.79	0.016
467.99	0.016
468.19	0.016
468.39	0.016
468.60	0.016
468.80	0.016
469.00	0.016
469.20	0.016
469.41	0.016
469.61	0.016
469.81	0.016
470.01	0.015
470.22	0.015
470.42	0.015
470.62	0.015
470.82	0.015
471.02	0.015
471.23	0.015
471.43	0.015
471.63	0.015
471.83	0.015
472.04	0.015
472.24	0.015
472.44	0.014
472.64	0.014
472.84	0.014
473.05	0.014
473.25	0.014
473.45	0.014
473.65	0.014
473.85	0.014
474.06	0.014
474.26	0.014
474.46	0.014
474.66	0.015
474.86	0.015
475.07	0.015
475.27	0.015
475.47	0.015
475.67	0.015
475.87	0.015
476.08	0.015
476.28	0.015
476.48	0.015
476.68	0.015
476.88	0.015
477.09	0.015
477.29	0.015
477.49	0.015
477.69	0.015
477.89	0.015
478.09	0.015
478.30	0.015
478.50	0.015
478.70	0.015
478.90	0.015
479.10	0.014
479.31	0.014
479.51	0.014
479.71	0.014
479.91	0.014
480.11	0.014
480.31	0.014
480.52	0.014
480.72	0.014
480.92	0.014
481.12	0.014
481.32	0.014
481.52	0.014
481.72	0.014
481.93	0.014
482.13	0.014
482.33	0.014
482.53	0.014
482.73	0.014
482.93	0.014
483.14	0.014
483.34	0.014
483.54	0.014
483.74	0.014
483.94	0.014
484.14	0.014
484.34	0.014
484.55	0.014
484.75	0.014
484.95	0.014
485.15	0.014
485.35	0.014
485.55	0.014
485.75	0.014
485.96	0.014
486.16	0.014
486.36	0.015
486.56	0.015
486.76	0.015
486.96	0.015
487.16	0.015
487.36	0.015
487.57	0.015
487.77	0.015
487.97	0.015
488.17	0.015
488.37	0.015
488.57	0.016
488.77	0.016
488.97	0.016
489.18	0.016
489.38	0.015
489.58	0.015
489.78	0.015
489.98	0.015
490.18	0.015
490.38	0.015
490.58	0.015
490.78	0.015
490.98	0.015
491.19	0.015
491.39	0.015
491.59	0.015
491.79	0.015
491.99	0.015
492.19	0.015
492.39	0.015
492.59	0.015
492.79	0.015
492.99	0.015
493.20	0.015
493.40	0.015
493.60	0.015
493.80	0.015
494.00	0.015
494.20	0.015
494.40	0.015
494.60	0.015
494.80	0.015
495.00	0.015
495.20	0.015
495.40	0.015
495.61	0.015
495.81	0.015
496.01	0.015
496.21	0.015
496.41	0.015
496.61	0.016
496.81	0.016
497.01	0.016
497.21	0.016
497.41	0.016
497.61	0.016
497.81	0.016
498.01	0.016
498.21	0.016
498.41	0.016
498.61	0.016
498.82	0.016
499.02	0.016
499.22	0.016
499.42	0.016
499.62	0.016
499.82	0.015
500.02	0.015
500.22	0.015
500.42	0.015
500.62	0.015
500.82	0.015
501.02	0.015
501.22	0.015
501.42	0.015
501.62	0.015
501.82	0.015
502.02	0.015
502.22	0.015
502.42	0.015
502.62	0.015
502.82	0.015
503.02	0.015
503.22	0.015
503.42	0.015
503.63	0.016
503.83	0.015
504.03	0.016
504.23	0.016
504.43	0.016
504.63	0.016
504.83	0.016
505.03	0.016
505.23	0.016
505.43	0.016
505.63	0.016
505.83	0.016
506.03	0.016
506.23	0.016
506.43	0.016
506.63	0.016
506.83	0.016
507.03	0.016
507.23	0.016
507.43	0.016
507.63	0.016
507.83	0.016
508.03	0.016
508.23	0.016
508.43	0.016
508.63	0.016
508.83	0.016
509.03	0.016
509.23	0.016
509.43	0.016
509.63	0.016
509.83	0.016
510.03	0.016
510.23	0.016
510.43	0.016
510.63	0.016
510.83	0.016
511.03	0.016
511.23	0.016
511.43	0.016
511.63	0.016
511.83	0.016
512.03	0.016
512.22	0.016
512.42	0.016
512.62	0.016
512.82	0.016
513.02	0.016
513.22	0.016
513.42	0.016
513.62	0.016
513.82	0.016
514.02	0.016
514.22	0.016
514.42	0.016
514.62	0.016
514.82	0.016
515.02	0.016
515.22	0.016
515.42	0.016
515.62	0.016
515.82	0.016
516.02	0.015
516.22	0.015
516.42	0.015
516.62	0.015
516.82	0.015
517.01	0.016
517.21	0.016
517.41	0.016
517.61	0.016
517.81	0.016
518.01	0.016
518.21	0.016
518.41	0.016
518.61	0.016
518.81	0.016
519.01	0.016
519.21	0.016
519.41	0.016
519.61	0.016
519.81	0.016
520.00	0.016
520.20	0.016
520.40	0.016
520.60	0.016
520.80	0.016
521.00	0.016
521.20	0.016
521.40	0.016
521.60	0.016
521.80	0.016
522.00	0.016
522.20	0.016
522.39	0.016
522.59	0.016
522.79	0.016
522.99	0.016
523.19	0.016
523.39	0.016
523.59	0.016
523.79	0.016
523.99	0.016
524.19	0.016
524.38	0.016
524.58	0.016
524.78	0.016
524.98	0.016
525.18	0.016
525.38	0.016
525.58	0.016
525.78	0.016
525.98	0.016
526.18	0.016
526.37	0.016
526.57	0.016
526.77	0.016
526.97	0.016
527.17	0.016
527.37	0.016
527.57	0.016
527.77	0.016
527.96	0.016
528.16	0.016
528.36	0.016
528.56	0.016
528.76	0.016
528.96	0.016
529.16	0.016
529.36	0.016
529.55	0.016
529.75	0.016
529.95	0.016
530.15	0.016
530.35	0.016
530.55	0.016
530.75	0.016
530.94	0.016
531.14	0.016
531.34	0.016
531.54	0.016
531.74	0.016
531.94	0.016
532.13	0.016
532.33	0.016
532.53	0.016
532.73	0.016
532.93	0.015
533.13	0.016
533.33	0.016
533.52	0.016
533.72	0.016
533.92	0.016
534.12	0.016
534.32	0.016
534.52	0.016
534.71	0.016
534.91	0.016
535.11	0.016
535.31	0.016
535.51	0.016
535.71	0.016
535.90	0.016
536.10	0.016
536.30	0.016
536.50	0.016
536.70	0.016
536.89	0.016
537.09	0.016
537.29	0.016
537.49	0.016
537.69	0.015
537.89	0.016
538.08	0.015
538.28	0.015
538.48	0.015
538.68	0.015
538.88	0.015
539.07	0.015
539.27	0.015
539.47	0.016
539.67	0.016
539.87	0.016
540.06	0.016
540.26	0.016
540.46	0.016
540.66	0.016
540.86	0.016
541.05	0.016
541.25	0.016
541.45	0.016
541.65	0.016
541.84	0.016
542.04	0.016
542.24	0.016
542.44	0.016
542.64	0.016
542.83	0.016
543.03	0.016
543.23	0.015
543.43	0.015
543.62	0.015
543.82	0.015
544.02	0.016
544.22	0.016
544.42	0.016
544.61	0.016
544.81	0.016
545.01	0.016
545.21	0.015
545.40	0.016
545.60	0.016
545.80	0.016
546.00	0.016
546.19	0.016
546.39	0.016
546.59	0.016
546.79	0.016
546.98	0.016
547.18	0.016
547.38	0.016
547.58	0.016
547.77	0.016
547.97	0.016
548.17	0.016
548.37	0.016
548.56	0.016
548.76	0.016
548.96	0.016
549.16	0.016
549.35	0.016
549.55	0.016
549.75	0.016
549.95	0.016
550.14	0.016
550.34	0.016
550.54	0.016
550.73	0.016
550.93	0.016
551.13	0.016
551.33	0.016
551.52	0.016
551.72	0.016
551.92	0.016
552.12	0.016
552.31	0.016
552.51	0.016
552.71	0.016
552.90	0.016
553.10	0.016
553.30	0.016
553.50	0.016
553.69	0.016
553.89	0.016
554.09	0.016
554.28	0.016
554.48	0.016
554.68	0.017
554.87	0.017
555.07	0.017
555.27	0.017
555.47	0.017
555.66	0.017
555.86	0.017
556.06	0.017
556.25	0.017
556.45	0.017
556.65	0.017
556.84	0.017
557.04	0.017
557.24	0.017
557.43	0.017
557.63	0.017
557.83	0.017
558.02	0.016
558.22	0.016
558.42	0.016
558.61	0.016
558.81	0.016
559.01	0.016
559.21	0.015
559.40	0.015
559.60	0.015
559.80	0.015
559.99	0.015
560.19	0.015
560.39	0.015
560.58	0.015
560.78	0.015
560.97	0.015
561.17	0.015
561.37	0.016
561.56	0.016
561.76	0.016
561.96	0.016
562.15	0.016
562.35	0.016
562.55	0.016
562.74	0.016
562.94	0.016
563.14	0.016
563.33	0.016
563.53	0.016
563.73	0.016
563.92	0.016
564.12	0.016
564.31	0.016
564.51	0.016
564.71	0.016
564.90	0.016
565.10	0.016
565.30	0.016
565.49	0.016
565.69	0.016
565.89	0.016
566.08	0.016
566.28	0.016
566.47	0.015
566.67	0.015
566.87	0.015
567.06	0.015
567.26	0.015
567.46	0.014
567.65	0.014
567.85	0.014
568.04	0.014
568.24	0.014
568.44	0.014
568.63	0.014
568.83	0.014
569.02	0.014
569.22	0.014
569.42	0.014
569.61	0.014
569.81	0.014
570.00	0.014
570.20	0.014
570.40	0.014
570.59	0.014
570.79	0.014
570.98	0.014
571.18	0.014
571.38	0.014
571.57	0.014
571.77	0.014
571.96	0.014
572.16	0.014
572.35	0.014
572.55	0.014
572.75	0.014
572.94	0.015
573.14	0.015
573.33	0.015
573.53	0.015
573.73	0.015
573.92	0.015
574.12	0.016
574.31	0.015
574.51	0.015
574.70	0.014
574.90	0.013
575.09	0.011
575.29	0.010
575.49	0.008
575.68	0.007
575.88	0.005
576.07	0.004
576.27	0.003
576.46	0.001
576.66	0.000
576.86	-0.000
577.05	-0.000
577.25	-0.000
577.44	-0.000
577.64	-0.000
577.83	-0.000
578.03	-0.000
578.22	-0.000
578.42	-0.000
578.61	-0.000
578.81	-0.000
579.00	-0.000
579.20	-0.000
579.40	-0.000
579.59	-0.000
579.79	-0.000
579.98	-0.000
580.18	-0.000
580.37	-0.000
580.57	-0.000
580.76	-0.000
580.96	-0.000
581.15	-0.000
581.35	-0.000
581.54	-0.000
581.74	-0.000
581.93	-0.000
582.13	-0.000
582.32	-0.000
582.52	-0.000
582.71	-0.000
582.91	-0.000
583.10	-0.000
583.30	-0.000
583.49	-0.000
583.69	-0.000
583.88	0.000
584.08	0.001
584.27	0.001
584.47	0.001
584.66	0.001
584.86	0.002
585.05	0.002
585.25	0.002
585.44	0.002
585.64	0.002
585.83	0.002
586.03	0.001
586.22	0.002
586.42	0.003
586.61	0.005
586.81	0.006
587.00	0.008
587.20	0.009
587.39	0.011
587.59	0.012
587.78	0.014
587.98	0.015
588.17	0.017
588.37	0.017
588.56	0.017
588.76	0.017
588.95	0.017
589.15	0.017
589.34	0.016
589.54	0.016
589.73	0.016
589.92	0.016
590.12	0.015
590.31	0.015
590.51	0.015
590.70	0.015
590.90	0.014
591.09	0.014
591.29	0.014
591.48	0.014
591.68	0.014
591.87	0.014
592.06	0.014
592.26	0.014
592.45	0.015
592.65	0.015
592.84	0.015
593.04	0.015
593.23	0.015
593.43	0.015
593.62	0.015
593.81	0.016
594.01	0.016
594.20	0.016
594.40	0.016
594.59	0.016
594.79	0.017
594.98	0.017
595.17	0.017
595.37	0.017
595.56	0.016
595.76	0.016
595.95	0.016
596.14	0.015
596.34	0.015
596.53	0.015
596.73	0.014
596.92	0.014
597.12	0.014
597.31	0.013
597.50	0.013
597.70	0.013
597.89	0.013
598.09	0.013
598.28	0.013
598.47	0.014
598.67	0.014
598.86	0.014
599.06	0.014
599.25	0.015
599.44	0.015
599.64	0.015
599.83	0.015
600.03	0.016
600.22	0.016
600.41	0.016
600.61	0.016
600.80	0.016
601.00	0.016
601.19	0.017
601.38	0.017
601.58	0.017
601.77	0.017
601.96	0.017
602.16	0.016
602.35	0.016
602.55	0.016
602.74	0.016
602.93	0.015
603.13	0.015
603.32	0.015
603.51	0.014
603.71	0.014
603.90	0.014
604.09	0.014
604.29	0.013
604.48	0.013
604.68	0.013
604.87	0.013
605.06	0.014
605.26	0.014
605.45	0.014
605.64	0.014
605.84	0.014
606.03	0.014
606.22	0.015
606.42	0.015
606.61	0.015
606.80	0.015
607.00	0.015
607.19	0.016
607.38	0.016
607.58	0.016
607.77	0.016
607.96	0.016
608.16	0.016
608.35	0.016
608.54	0.016
608.74	0.017
608.93	0.017
609.12	0.017
609.32	0.017
609.51	0.017
609.70	0.017
609.90	0.017
610.09	0.017
610.28	0.016
610.48	0.016
610.67	0.016
610.86	0.016
611.06	0.016
611.25	0.016
611.44	0.015
611.64	0.015
611.83	0.015
612.02	0.015
612.21	0.015
612.41	0.015
612.60	0.015
612.79	0.015
612.99	0.015
613.18	0.015
613.37	0.015
613.57	0.015
613.76	0.015
613.95	0.015
614.14	0.015
614.34	0.016
614.53	0.016
614.72	0.016
614.92	0.016
615.11	0.016
615.30	0.016
615.49	0.016
615.69	0.016
615.88	0.017
616.07	0.017
616.26	0.017
616.46	0.017
616.65	0.017
616.84	0.017
617.04	0.017
617.23	0.017
617.42	0.017
617.61	0.017
617.81	0.018
618.00	0.017
618.19	0.017
618.38	0.017
618.58	0.017
618.77	0.017
618.96	0.017
619.15	0.016
619.35	0.017
619.54	0.017
619.73	0.017
619.92	0.016
620.12	0.016
620.31	0.016
620.50	0.016
620.69	0.017
620.89	0.016
621.08	0.017
621.27	0.016
621.46	0.016
621.66	0.016
621.85	0.016
622.04	0.016
622.23	0.016
622.43	0.016
622.62	0.016
622.81	0.016
623.00	0.016
623.19	0.016
623.39	0.017
623.58	0.017
623.77	0.017
623.96	0.017
624.16	0.017
624.35	0.017
624.54	0.017
624.73	0.017
624.92	0.017
625.12	0.017
625.31	0.017
625.50	0.017
625.69	0.017
625.88	0.017
626.08	0.017
626.27	0.017
626.46	0.017
626.65	0.017
626.84	0.017
627.04	0.017
627.23	0.017
627.42	0.017
627.61	0.017
627.80	0.017
628.00	0.017
628.19	0.017
628.38	0.018
628.57	0.018
628.76	0.018
628.96	0.018
629.15	0.018
629.34	0.018
629.53	0.018
629.72	0.018
629.91	0.018
630.11	0.018
630.30	0.018
630.49	0.018
630.68	0.018
630.87	0.018
631.06	0.018
631.26	0.018
631.45	0.018
631.64	0.018
631.83	0.018
632.02	0.018
632.21	0.018
632.41	0.018
632.60	0.018
632.79	0.018
632.98	0.018
633.17	0.018
633.36	0.018
633.55	0.018
633.75	0.018
633.94	0.018
634.13	0.018
634.32	0.018
634.51	0.018
634.70	0.017
634.89	0.018
635.09	0.018
635.28	0.018
635.47	0.018
635.66	0.018
635.85	0.018
636.04	0.018
636.23	0.018
636.43	0.018
636.62	0.018
636.81	0.018
637.00	0.018
637.19	0.018
637.38	0.018
637.57	0.018
637.76	0.018
637.95	0.018
638.15	0.018
638.34	0.018
638.53	0.018
638.72	0.018
638.91	0.018
639.10	0.018
639.29	0.018
639.48	0.018
639.67	0.018
639.87	0.018
640.06	0.018
640.25	0.018
640.44	0.018
640.63	0.018
640.82	0.018
641.01	0.018
641.20	0.018
641.39	0.018
641.58	0.019
641.78	0.019
641.97	0.019
642.16	0.018
642.35	0.019
642.54	0.019
642.73	0.019
642.92	0.019
643.11	0.019
643.30	0.019
643.49	0.018
643.68	0.018
643.87	0.018
644.06	0.018
644.25	0.018
644.45	0.018
644.64	0.018
644.83	0.019
645.02	0.018
645.21	0.018
645.40	0.018
645.59	0.018
645.78	0.018
645.97	0.018
646.16	0.018
646.35	0.017
646.54	0.017
646.73	0.017
646.92	0.017
647.11	0.017
647.30	0.017
647.49	0.017
647.68	0.017
647.88	0.017
648.07	0.017
648.26	0.017
648.45	0.017
648.64	0.017
648.83	0.017
649.02	0.017
649.21	0.017
649.40	0.017
649.59	0.017
649.78	0.017
649.97	0.017
650.16	0.018
650.35	0.018
650.54	0.018
650.73	0.018
650.92	0.018
651.11	0.018
651.30	0.018
651.49	0.018
651.68	0.018
651.87	0.018
652.06	0.018
652.25	0.018
652.44	0.018
652.63	0.016
652.82	0.015
653.01	0.014
653.20	0.013
653.39	0.012
653.58	0.012
653.77	0.011
653.96	0.011
654.15	0.011
654.34	0.011
654.53	0.011
654.72	0.012
654.91	0.013
655.10	0.013
655.29	0.013
655.48	0.014
655.67	0.014
655.86	0.014
656.05	0.015
656.24	0.015
656.43	0.015
656.62	0.015
656.81	0.016
657.00	0.017
657.19	0.018
657.38	0.019
657.57	0.020
657.76	0.020
657.95	0.021
658.14	0.021
658.33	0.022
658.51	0.022
658.70	0.023
658.89	0.023
659.08	0.022
659.27	0.021
659.46	0.020
659.65	0.020
659.84	0.019
660.03	0.019
660.22	0.019
660.41	0.019
660.60	0.019
660.79	0.019
660.98	0.019
661.17	0.018
661.36	0.018
661.55	0.018
661.74	0.018
661.92	0.018
662.11	0.018
662.30	0.018
662.49	0.018
662.68	0.018
662.87	0.017
663.06	0.018
663.25	0.018
663.44	0.018
663.63	0.018
663.82	0.018
664.01	0.018
664.20	0.018
664.38	0.018
664.57	0.018
664.76	0.018
664.95	0.018
665.14	0.018
665.33	0.018
665.52	0.018
665.71	0.018
665.90	0.018
666.09	0.018
666.28	0.018
666.46	0.018
666.65	0.018
666.84	0.018
667.03	0.018
667.22	0.018
667.41	0.018
667.60	0.018
667.79	0.018
667.98	0.018
668.16	0.018
668.35	0.018
668.54	0.018
668.73	0.018
668.92	0.018
669.11	0.018
669.30	0.017
669.49	0.017
669.67	0.017
669.86	0.017
670.05	0.017
670.24	0.017
670.43	0.017
670.62	0.017
670.81	0.017
671.00	0.017
671.18	0.017
671.37	0.017
671.56	0.017
671.75	0.017
671.94	0.017
672.13	0.017
672.32	0.017
672.50	0.017
672.69	0.017
672.88	0.017
673.07	0.018
673.26	0.018
673.45	0.018
673.63	0.018
673.82	0.018
674.01	0.018
674.20	0.018
674.39	0.018
674.58	0.018
674.76	0.018
674.95	0.018
675.14	0.018
675.33	0.018
675.52	0.018
675.71	0.018
675.89	0.018
676.08	0.018
676.27	0.018
676.46	0.018
676.65	0.018
676.84	0.018
677.02	0.018
677.21	0.018
677.40	0.018
677.59	0.018
677.78	0.018
677.96	0.018
678.15	0.018
678.34	0.018
678.53	0.018
678.72	0.018
678.90	0.018
679.09	0.018
679.28	0.018
679.47	0.017
679.66	0.017
679.84	0.018
680.03	0.018
680.22	0.018
680.41	0.017
680.60	0.018
680.78	0.018
680.97	0.018
681.16	0.018
681.35	0.018
681.53	0.018
681.72	0.018
681.91	0.018
682.10	0.017
682.29	0.017
682.47	0.017
682.66	0.017
682.85	0.017
683.04	0.017
683.22	0.017
683.41	0.017
683.60	0.017
683.79	0.017
683.97	0.017
684.16	0.017
684.35	0.017
684.54	0.017
684.72	0.017
684.91	0.017
685.10	0.017
685.29	0.017
685.47	0.017
685.66	0.017
685.85	0.017
686.04	0.017
686.22	0.017
686.41	0.018
686.60	0.018
686.79	0.018
686.97	0.018
687.16	0.018
687.35	0.018
687.54	0.018
687.72	0.018
687.91	0.018
688.10	0.018
688.29	0.018
688.47	0.018
688.66	0.018
688.85	0.018
689.03	0.018
689.22	0.018
689.41	0.018
689.60	0.018
689.78	0.017
689.97	0.017
690.16	0.017
690.34	0.018
690.53	0.017
690.72	0.018
690.91	0.018
691.09	0.018
691.28	0.018
691.47	0.018
691.65	0.018
691.84	0.018
692.03	0.018
692.21	0.018
692.40	0.018
692.59	0.018
692.77	0.018
692.96	0.018
693.15	0.018
693.34	0.018
693.52	0.018
693.71	0.018
693.90	0.018
694.08	0.018
694.27	0.018
694.46	0.018
694.64	0.018
694.83	0.018
695.02	0.018
695.20	0.018
695.39	0.017
695.58	0.017
695.76	0.017
695.95	0.017
696.14	0.017
696.32	0.017
696.51	0.017
696.70	0.017
696.88	0.017
697.07	0.017
697.26	0.017
697.44	0.017
697.63	0.017
697.81	0.017
698.00	0.017
698.19	0.018
698.37	0.018
698.56	0.018
698.75	0.018
698.93	0.018
699.12	0.018
699.31	0.018
699.49	0.018
699.68	0.018
699.87	0.018
700.05	0.018
700.24	0.018
700.42	0.018
700.61	0.018
700.80	0.018
700.98	0.018
701.17	0.018
701.36	0.018
701.54	0.018
701.73	0.018
701.91	0.018
702.10	0.018
702.29	0.018
702.47	0.018
702.66	0.018
702.84	0.018
703.03	0.019
703.22	0.019
703.40	0.019
703.59	0.019
703.77	0.019
703.96	0.018
704.15	0.018
704.33	0.018
704.52	0.018
704.70	0.018
704.89	0.018
705.08	0.018
705.26	0.018
705.45	0.018
705.63	0.018
705.82	0.018
706.00	0.018
706.19	0.017
706.38	0.017
706.56	0.017
706.75	0.017
706.93	0.017
707.12	0.017
707.30	0.017
707.49	0.017
707.68	0.017
707.86	0.017
708.05	0.017
708.23	0.017
708.42	0.017
708.60	0.017
708.79	0.017
708.98	0.017
709.16	0.017
709.35	0.017
709.53	0.017
709.72	0.017
709.90	0.018
710.09	0.018
710.27	0.018
710.46	0.018
710.64	0.018
710.83	0.018
711.02	0.018
711.20	0.018
711.39	0.018
711.57	0.018
711.76	0.018
711.94	0.018
712.13	0.018
712.31	0.018
712.50	0.018
712.68	0.018
712.87	0.018
713.05	0.018
713.24	0.018
713.42	0.018
713.61	0.018
713.79	0.018
713.98	0.018
714.16	0.018
714.35	0.018
714.54	0.018
714.72	0.018
714.91	0.018
715.09	0.018
715.28	0.018
715.46	0.018
715.65	0.018
715.83	0.018
716.02	0.018
716.20	0.018
716.39	0.018
716.57	0.018
716.76	0.018
716.94	0.018
717.12	0.018
717.31	0.018
717.49	0.017
717.68	0.017
717.86	0.017
718.05	0.017
718.23	0.017
718.42	0.017
718.60	0.017
718.79	0.017
718.97	0.017
719.16	0.017
719.34	0.017
719.53	0.017
719.71	0.017
719.90	0.017
720.08	0.017
720.27	0.017
720.45	0.018
720.63	0.017
720.82	0.018
721.00	0.018
721.19	0.018
721.37	0.018
721.56	0.018
721.74	0.018
721.93	0.018
722.11	0.018
722.30	0.018
722.48	0.018
722.66	0.018
722.85	0.018
723.03	0.018
723.22	0.018
723.40	0.017
723.59	0.017
723.77	0.018
723.95	0.017
724.14	0.017
724.32	0.017
724.51	0.017
724.69	0.017
724.88	0.017
725.06	0.017
725.24	0.017
725.43	0.017
725.61	0.016
725.80	0.016
725.98	0.016
726.16	0.016
726.35	0.016
726.53	0.016
726.72	0.016
726.90	0.016
727.09	0.016
727.27	0.016
727.45	0.016
727.64	0.016
727.82	0.017
728.01	0.017
728.19	0.017
728.37	0.016
728.56	0.016
728.74	0.016
728.92	0.016
729.11	0.016
729.29	0.016
729.48	0.016
729.66	0.016
729.84	0.016
730.03	0.016
730.21	0.016
730.40	0.016
730.58	0.016
730.76	0.016
730.95	0.016
731.13	0.016
731.31	0.016
731.50	0.015
731.68	0.016
731.86	0.016
732.05	0.016
732.23	0.016
732.42	0.016
732.60	0.016
732.78	0.016
732.97	0.016
733.15	0.015
733.33	0.015
733.52	0.015
733.70	0.015
733.88	0.015
734.07	0.015
734.25	0.014
734.43	0.014
734.62	0.014
734.80	0.014
734.98	0.014
735.17	0.014
735.35	0.014
735.53	0.013
735.72	0.014
735.90	0.013
736.08	0.014
736.27	0.013
736.45	0.013
736.63	0.013
736.82	0.014
737.00	0.013
737.18	0.014
737.37	0.014
737.55	0.013
737.73	0.013
737.92	0.013
738.10	0.012
738.28	0.012
738.46	0.012
738.65	0.012
738.83	0.012
739.01	0.012
739.20	0.012
739.38	0.012
739.56	0.013
739.75	0.013
739.93	0.013
740.11	0.013
740.29	0.014
740.48	0.014
740.66	0.014
740.84	0.014
741.03	0.014
741.21	0.014
741.39	0.014
741.57	0.014
741.76	0.014
741.94	0.013
742.12	0.013
742.31	0.013
742.49	0.013
742.67	0.013
742.85	0.012
743.04	0.012
743.22	0.012
743.40	0.011
743.58	0.012
743.77	0.012
743.95	0.013
744.13	0.013
744.31	0.013
744.50	0.013
744.68	0.013
744.86	0.014
745.04	0.014
745.23	0.014
745.41	0.014
745.59	0.014
745.77	0.014
745.96	0.013
746.14	0.014
746.32	0.014
746.50	0.014
746.69	0.014
746.87	0.013
747.05	0.013
747.23	0.013
747.42	0.013
747.60	0.013
747.78	0.014
747.96	0.014
748.14	0.014
748.33	0.015
748.51	0.015
748.69	0.015
748.87	0.015
749.06	0.016
749.24	0.016
749.42	0.016
749.60	0.016
749.78	0.016
749.97	0.015
750.15	0.015
750.33	0.014
750.51	0.014
750.69	0.014
750.88	0.013
751.06	0.013
751.24	0.013
751.42	0.013
751.60	0.013
751.79	0.014
751.97	0.013
752.15	0.013
752.33	0.013
752.51	0.013
752.69	0.014
752.88	0.014
753.06	0.014
753.24	0.013
753.42	0.013
753.60	0.014
753.78	0.013
753.97	0.013
754.15	0.013
754.33	0.013
754.51	0.013
754.69	0.012
754.87	0.012
755.06	0.012
755.24	0.012
755.42	0.013
755.60	0.012
755.78	0.013
755.96	0.013
756.15	0.013
756.33	0.013
756.51	0.013
756.69	0.014
756.87	0.014
757.05	0.014
757.23	0.013
757.42	0.013
757.60	0.014
757.78	0.014
757.96	0.014
758.14	0.014
758.32	0.014
758.50	0.014
758.69	0.014
758.87	0.014
759.05	0.015
759.23	0.015
759.41	0.015
759.59	0.016
759.77	0.015
759.95	0.016
760.13	0.016
760.32	0.016
760.50	0.016
760.68	0.016
760.86	0.016
761.04	0.016
761.22	0.016
761.40	0.015
761.58	0.015
761.76	0.015
761.95	0.015
762.13	0.015
762.31	0.015
762.49	0.015
762.67	0.015
762.85	0.015
763.03	0.014
763.21	0.015
763.39	0.015
763.57	0.015
763.75	0.016
763.94	0.015
764.12	0.015
764.30	0.015
764.48	0.014
764.66	0.014
764.84	0.014
765.02	0.014
765.20	0.014
765.38	0.014
765.56	0.015
765.74	0.014
765.92	0.015
766.10	0.015
766.28	0.016
766.46	0.016
766.65	0.016
766.83	0.016
767.01	0.016
767.19	0.016
767.37	0.016
767.55	0.016
767.73	0.016
767.91	0.016
768.09	0.016
768.27	0.016
768.45	0.015
768.63	0.016
768.81	0.015
768.99	0.015
769.17	0.016
769.35	0.016
769.53	0.016
769.71	0.017
769.89	0.017
770.07	0.017
770.25	0.017
770.43	0.018
770.61	0.018
770.79	0.019
770.97	0.019
771.15	0.018
771.33	0.018
771.51	0.018
771.69	0.018
771.87	0.018
772.05	0.018
772.24	0.017
772.42	0.017
772.60	0.017
772.78	0.017
772.96	0.018
773.14	0.017
773.32	0.017
773.49	0.017
773.67	0.017
773.85	0.017
774.03	0.017
774.21	0.018
774.39	0.017
774.57	0.017
774.75	0.017
774.93	0.016
775.11	0.017
775.29	0.017
775.47	0.017
775.65	0.016
775.83	0.016
776.01	0.016
776.19	0.016
776.37	0.016
776.55	0.015
776.73	0.016
776.91	0.016
777.09	0.015
777.27	0.016
777.45	0.016
777.63	0.016
777.81	0.016
777.99	0.017
778.17	0.017
778.35	0.017
778.53	0.017
778.71	0.017
778.89	0.017
779.07	0.017
779.24	0.017
779.42	0.017
779.60	0.017
779.78	0.017
779.96	0.016
780.14	0.016
780.32	0.015
780.50	0.016
780.68	0.016
780.86	0.016
781.04	0.016
781.22	0.016
781.40	0.017
781.58	0.017
781.75	0.017
781.93	0.017
782.11	0.017
782.29	0.018
782.47	0.018
782.65	0.019
782.83	0.019
783.01	0.018
783.19	0.018
783.37	0.018
783.55	0.018
783.72	0.018
783.90	0.018
784.08	0.018
784.26	0.018
784.44	0.018
784.62	0.018
784.80	0.018
784.98	0.018
785.16	0.018
785.33	0.018
785.51	0.018
785.69	0.018
785.87	0.018
786.05	0.017
786.23	0.017
786.41	0.017
786.59	0.017
786.77	0.017
786.94	0.017
787.12	0.017
787.30	0.017
787.48	0.017
787.66	0.017
787.84	0.018
788.02	0.018
788.19	0.018
788.37	0.018
788.55	0.018
788.73	0.018
788.91	0.019
789.09	0.018
789.27	0.019
789.44	0.018
789.62	0.018
789.80	0.018
789.98	0.018
790.16	0.017
790.34	0.017
790.51	0.017
790.69	0.017
790.87	0.017
791.05	0.017
791.23	0.017
791.41	0.017
791.58	0.017
791.76	0.017
791.94	0.017
792.12	0.018
792.30	0.018
792.48	0.018
792.65	0.018
792.83	0.017
793.01	0.018
793.19	0.018
793.37	0.018
793.54	0.018
793.72	0.017
793.90	0.017
794.08	0.018
794.26	0.018
794.43	0.018
794.61	0.019
794.79	0.019
794.97	0.019
795.15	0.019
795.32	0.019
795.50	0.020
795.68	0.020
795.86	0.020
796.04	0.020
796.21	0.019
796.39	0.019
796.57	0.019
796.75	0.019
796.92	0.019
797.10	0.019
797.28	0.018
797.46	0.018
797.64	0.017
797.81	0.017
797.99	0.017
798.17	0.017
798.35	0.018
798.52	0.018
798.70	0.018
798.88	0.018
799.06	0.018
799.23	0.018
799.41	0.018
799.59	0.019
799.77	0.019
799.94	0.019
800.12	0.019
800.30	0.018
800.48	0.018
800.65	0.018
800.83	0.018
801.01	0.017
801.19	0.018
801.36	0.018
801.54	0.018
801.72	0.017
801.90	0.017
802.07	0.017
802.25	0.017
802.43	0.017
802.60	0.018
802.78	0.018
802.96	0.018
803.14	0.018
803.31	0.018
803.49	0.017
803.67	0.017
803.84	0.018
804.02	0.018
804.20	0.018
804.38	0.017
804.55	0.017
804.73	0.017
804.91	0.017
805.08	0.017
805.26	0.017
805.44	0.018
805.61	0.018
805.79	0.019
805.97	0.018
806.15	0.018
806.32	0.018
806.50	0.018
806.68	0.018
806.85	0.018
807.03	0.018
807.21	0.018
807.38	0.018
807.56	0.018
807.74	0.018
807.91	0.018
808.09	0.018
808.27	0.018
808.44	0.018
808.62	0.019
808.80	0.019
808.97	0.019
809.15	0.019
809.33	0.018
809.50	0.018
809.68	0.019
809.86	0.019
810.03	0.019
810.21	0.019
810.39	0.019
810.56	0.018
810.74	0.019
810.91	0.019
811.09	0.019
811.27	0.019
811.44	0.019
811.62	0.018
811.80	0.018
811.97	0.019
812.15	0.019
812.33	0.019
812.50	0.019
812.68	0.018
812.85	0.018
813.03	0.018
813.21	0.018
813.38	0.018
813.56	0.018
813.74	0.018
813.91	0.018
814.09	0.018
814.26	0.018
814.44	0.018
814.62	0.018
814.79	0.018
814.97	0.018
815.14	0.018
815.32	0.018
815.50	0.018
815.67	0.018
815.85	0.018
816.02	0.018
816.20	0.018
816.38	0.018
816.55	0.018
816.73	0.019
816.90	0.018
817.08	0.018
817.26	0.019
817.43	0.018
817.61	0.018
817.78	0.018
817.96	0.018
818.13	0.018
818.31	0.018
818.49	0.018
818.66	0.017
818.84	0.017
819.01	0.017
819.19	0.017
819.36	0.017
819.54	0.017
819.71	0.017
819.89	0.017
820.07	0.017
820.24	0.017
820.42	0.017
820.59	0.017
820.77	0.018
820.94	0.018
821.12	0.018
821.29	0.018
821.47	0.018
821.64	0.018
821.82	0.019
822.00	0.018
822.17	0.018
822.35	0.018
822.52	0.018
822.70	0.018
822.87	0.017
823.05	0.017
823.22	0.017
823.40	0.017
823.57	0.017
823.75	0.017
823.92	0.017
824.10	0.017
824.27	0.016
824.45	0.016
824.62	0.017
824.80	0.017
824.97	0.017
825.15	0.017
825.32	0.017
825.50	0.016
825.67	0.016
825.85	0.016
826.02	0.017
826.20	0.017
826.37	0.017
826.55	0.017
826.72	0.017
826.90	0.017
827.07	0.018
827.25	0.018
827.42	0.018
827.60	0.019
827.77	0.019
827.95	0.019
828.12	0.019
828.30	0.019
828.47	0.019
828.65	0.019
828.82	0.019
829.00	0.020
829.17	0.020
829.34	0.020
829.52	0.019
829.69	0.020
829.87	0.019
830.04	0.019
830.22	0.019
830.39	0.019
830.57	0.020
830.74	0.020
830.92	0.019
831.09	0.019
831.26	0.019
831.44	0.020
831.61	0.020
831.79	0.021
831.96	0.021
832.14	0.022
832.31	0.021
832.49	0.020
832.66	0.019
832.83	0.020
833.01	0.019
833.18	0.020
833.36	0.019
833.53	0.019
833.70	0.018
833.88	0.019
834.05	0.018
834.23	0.019
834.40	0.019
834.58	0.019
834.75	0.018
834.92	0.017
835.10	0.014
835.27	0.013
835.45	0.012
835.62	0.012
835.79	0.012
835.97	0.011
836.14	0.009
836.32	0.008
836.49	0.008
836.66	0.008
836.84	0.009
837.01	0.010
837.18	0.011
837.36	0.011
837.53	0.011
837.71	0.009
837.88	0.010
838.05	0.009
838.23	0.011
838.40	0.012
838.58	0.011
838.75	0.011
838.92	0.011
839.10	0.011
839.27	0.012
839.44	0.012
839.62	0.012
839.79	0.014
839.96	0.017
840.14	0.016
840.31	0.017
840.48	0.017
840.66	0.018
840.83	0.018
841.01	0.019
841.18	0.018
841.35	0.018
841.53	0.017
841.70	0.018
841.87	0.016
842.05	0.016
842.22	0.017
842.39	0.018
842.57	0.016
842.74	0.016
842.91	0.017
843.09	0.017
843.26	0.018
843.43	0.018
843.60	0.017
843.78	0.018
843.95	0.019
844.12	0.019
844.30	0.020
844.47	0.019
844.64	0.019
844.82	0.017
844.99	0.017
845.16	0.016
845.34	0.016
845.51	0.017
845.68	0.018
845.85	0.018
846.03	0.017
846.20	0.018
846.37	0.019
846.55	0.020
846.72	0.022
846.89	0.023
847.06	0.024
847.24	0.025
847.41	0.023
847.58	0.021
847.76	0.024
847.93	0.024
848.10	0.022
848.27	0.021
848.45	0.023
848.62	0.022
848.79	0.020
848.97	0.019
849.14	0.016
849.31	0.018
849.48	0.016
849.66	0.012
849.83	0.012
850.00	0.012
850.17	0.010
850.35	0.008
850.52	0.006
850.69	0.007
850.86	0.007
851.04	0.009
851.21	0.008
851.38	0.006
851.55	0.005
851.72	0.005
851.90	0.008
852.07	0.010
852.24	0.011
852.41	0.011
852.59	0.012
852.76	0.010
852.93	0.011
853.10	0.012
853.28	0.015
853.45	0.016
853.62	0.014
853.79	0.012
853.96	0.011
854.14	0.013
854.31	0.014
854.48	0.015
854.65	0.016
854.82	0.018
855.00	0.017
855.17	0.017
855.34	0.020
855.51	0.021
855.68	0.019
855.86	0.019
856.03	0.017
856.20	0.016
856.37	0.014
856.54	0.014
856.72	0.011
856.89	0.010
857.06	0.009
857.23	0.007
857.40	0.008
857.57	0.011
857.75	0.013
857.92	0.017
858.09	0.017
858.26	0.016
858.43	0.015
858.60	0.016
858.78	0.019
858.95	0.020
859.12	0.023
859.29	0.023
859.46	0.018
859.63	0.020
859.81	0.021
859.98	0.021
860.15	0.024
860.32	0.025
860.49	0.024
860.66	0.022
860.83	0.021
861.01	0.017
861.18	0.016
861.35	0.021
861.52	0.017
861.69	0.013
861.86	0.016
862.03	0.014
862.21	0.016
862.38	0.018
862.55	0.016
862.72	0.015
862.89	0.018
863.06	0.019
863.23	0.020
863.40	0.020
863.58	0.019
863.75	0.016
863.92	0.016
864.09	0.017
864.26	0.017
864.43	0.017
864.60	0.018
864.77	0.017
864.94	0.020
865.11	0.021
865.29	0.022
865.46	0.023
865.63	0.025
865.80	0.027
865.97	0.022
866.14	0.023
866.31	0.024
866.48	0.024
866.65	0.027
866.82	0.024
866.99	0.022
867.16	0.021
867.34	0.022
867.51	0.022
867.68	0.021
867.85	0.020
868.02	0.019
868.19	0.019
868.36	0.019
868.53	0.014
868.70	0.016
868.87	0.009
869.04	0.011
869.21	0.012
869.38	0.010
869.55	0.007
869.72	0.007
869.89	0.010
870.06	0.012
870.24	0.012
870.41	0.011
870.58	0.009
870.75	0.015
870.92	0.018
871.09	0.020
871.26	0.024
871.43	0.025
871.60	0.030
871.77	0.026
871.94	0.025
872.11	0.028
872.28	0.027
872.45	0.026
872.62	0.024
872.79	0.017
872.96	0.012
873.13	0.006
873.30	0.008
873.47	0.008
873.64	0.004
873.81	0.001
873.98	0.002
874.15	0.010
874.32	0.013
874.49	0.019
874.66	0.018
874.83	0.025
875.00	0.023
875.17	0.021
875.34	0.020
875.51	0.024
875.68	0.029
875.85	0.019
876.02	0.017
876.19	0.015
876.36	0.015
876.53	0.022
876.70	0.019
876.87	0.026
877.04	0.025
877.21	0.030
877.38	0.031
877.55	0.031
877.72	0.039
877.89	0.040
878.06	0.034
878.23	0.032
878.39	0.029
878.56	0.034
878.73	0.031
878.90	0.026
879.07	0.019
879.24	0.017
879.41	0.018
879.58	0.020
879.75	0.016
879.92	0.025
880.09	0.023
880.26	0.024
880.43	0.012
880.60	0.013
880.77	0.025
880.94	0.026
881.11	0.035
881.27	0.035
881.44	0.031
881.61	0.036
881.78	0.028
881.95	0.029
882.12	0.025
882.29	0.032
882.46	0.029
882.63	0.027
882.80	0.025
882.97	0.020
883.14	0.013
883.30	0.006
883.47	0.003
883.64	0.008
883.81	0.008
883.98	0.010
884.15	0.007
884.32	0.011
884.49	0.010
884.66	0.013
884.82	0.016
884.99	0.018
885.16	0.031
885.33	0.027
885.50	0.031
885.67	0.035
885.84	0.040
886.01	0.040
886.17	0.037
886.34	0.040
886.51	0.043
886.68	0.039
886.85	0.044
887.02	0.049
887.19	0.052
887.36	0.045
887.52	0.040
887.69	0.050
887.86	0.049
888.03	0.052
888.20	0.044
888.37	0.036
888.54	0.038
888.70	0.032
888.87	0.016
889.04	0.019
889.21	0.013
889.38	0.018
889.55	0.002
889.71	0.008
889.88	0.001
890.05	-0.102
890.22	0.068
890.39	-0.008
>>>>>End Processed Spectral Data<<<<<
