SpectraSuite Data File
++++++++++++++++++++++++++++++++++++
Date: Mon Jun 15 07:14:41 PDT 2015
User: introlabs
Dark Spectrum Present: Yes
Reference Spectrum Present: Yes
Number of Sampled Component Spectra: 1
Spectrometers: USB4H08886
Integration Time (usec): 44366 (USB4H08886)
Spectra Averaged: 20 (USB4H08886)
Boxcar Smoothing: 5 (USB4H08886)
Correct for Electrical Dark: Yes (USB4H08886)
Strobe/Lamp Enabled: No (USB4H08886)
Correct for Detector Non-linearity: Yes (USB4H08886)
Correct for Stray Light: Yes (USB4H08886)
Number of Pixels in Processed Spectrum: 3648
>>>>>Begin Processed Spectral Data<<<<<
178.14	0.421
178.36	0.421
178.57	0.421
178.79	-0.000
179.01	-0.868
179.22	-0.000
179.44	-0.000
179.65	-0.194
179.87	-0.009
180.08	0.567
180.30	0.502
180.52	0.137
180.73	0.138
180.95	0.112
181.16	0.043
181.38	0.011
181.59	0.042
181.81	0.015
182.03	0.026
182.24	0.033
182.46	0.036
182.67	0.030
182.89	0.040
183.10	0.044
183.32	0.034
183.54	0.023
183.75	0.028
183.97	0.027
184.18	0.027
184.40	0.021
184.61	0.022
184.83	0.016
185.04	0.011
185.26	0.006
185.48	0.004
185.69	0.016
185.91	0.024
186.12	0.022
186.34	0.029
186.55	0.019
186.77	0.021
186.98	0.012
187.20	0.010
187.42	0.017
187.63	0.016
187.85	0.013
188.06	0.012
188.28	0.009
188.49	0.015
188.71	0.004
188.92	0.013
189.14	0.000
189.36	0.008
189.57	0.015
189.79	0.008
190.00	0.007
190.22	0.006
190.43	0.006
190.65	0.004
190.86	0.002
191.08	0.007
191.29	0.008
191.51	0.019
191.72	0.012
191.94	0.004
192.16	0.010
192.37	0.008
192.59	0.008
192.80	0.003
193.02	0.016
193.23	0.017
193.45	0.008
193.66	0.003
193.88	0.005
194.09	0.007
194.31	0.009
194.52	0.005
194.74	0.003
194.95	0.008
195.17	0.003
195.38	-0.004
195.60	-0.016
195.81	-0.001
196.03	0.006
196.25	0.008
196.46	0.014
196.68	0.020
196.89	0.027
197.11	0.029
197.32	0.026
197.54	0.024
197.75	0.033
197.97	0.038
198.18	0.028
198.40	0.030
198.61	0.026
198.83	0.018
199.04	0.008
199.26	-0.003
199.47	-0.005
199.69	-0.001
199.90	0.016
200.12	0.009
200.33	0.018
200.55	0.017
200.76	0.007
200.98	0.005
201.19	0.005
201.41	0.010
201.62	0.015
201.84	0.018
202.05	0.014
202.27	0.008
202.48	0.006
202.70	0.006
202.91	0.006
203.13	0.008
203.34	0.001
203.56	0.007
203.77	0.011
203.99	0.007
204.20	0.005
204.42	-0.000
204.63	0.001
204.85	-0.007
205.06	-0.010
205.28	-0.011
205.49	-0.006
205.71	0.006
205.92	0.003
206.14	-0.004
206.35	0.002
206.56	0.013
206.78	0.016
206.99	0.019
207.21	0.029
207.42	0.029
207.64	0.034
207.85	0.031
208.07	0.027
208.28	0.021
208.50	0.025
208.71	0.029
208.93	0.020
209.14	0.019
209.36	0.016
209.57	0.021
209.79	0.016
210.00	0.013
210.22	0.016
210.43	0.015
210.64	0.021
210.86	0.010
211.07	0.002
211.29	-0.003
211.50	-0.003
211.72	-0.008
211.93	-0.014
212.15	-0.011
212.36	-0.012
212.58	-0.013
212.79	-0.011
213.01	-0.019
213.22	-0.015
213.43	-0.007
213.65	-0.002
213.86	-0.002
214.08	0.004
214.29	-0.001
214.51	0.001
214.72	0.000
214.94	-0.001
215.15	0.003
215.36	0.009
215.58	0.012
215.79	0.004
216.01	0.012
216.22	0.022
216.44	0.014
216.65	0.014
216.87	0.016
217.08	0.017
217.29	0.021
217.51	0.022
217.72	0.018
217.94	0.021
218.15	0.027
218.37	0.017
218.58	0.008
218.80	0.018
219.01	0.020
219.22	0.016
219.44	0.021
219.65	0.022
219.87	0.016
220.08	0.021
220.30	0.017
220.51	0.013
220.72	0.016
220.94	0.012
221.15	0.008
221.37	0.007
221.58	0.006
221.79	0.005
222.01	-0.006
222.22	-0.008
222.44	-0.013
222.65	-0.013
222.87	-0.016
223.08	-0.016
223.29	-0.014
223.51	-0.016
223.72	-0.012
223.94	-0.011
224.15	-0.014
224.36	-0.011
224.58	-0.013
224.79	-0.009
225.01	-0.009
225.22	-0.009
225.44	-0.010
225.65	-0.004
225.86	-0.001
226.08	-0.005
226.29	-0.006
226.51	-0.002
226.72	0.005
226.93	0.011
227.15	0.006
227.36	0.005
227.58	0.005
227.79	0.010
228.00	0.006
228.22	0.002
228.43	0.003
228.65	0.006
228.86	0.006
229.07	0.001
229.29	0.000
229.50	0.003
229.72	0.003
229.93	0.005
230.14	0.003
230.36	0.005
230.57	0.008
230.78	0.009
231.00	0.007
231.21	0.005
231.43	0.009
231.64	0.009
231.85	0.012
232.07	0.013
232.28	0.015
232.50	0.014
232.71	0.011
232.92	0.010
233.14	0.012
233.35	0.013
233.56	0.014
233.78	0.011
233.99	0.010
234.21	0.011
234.42	0.011
234.63	0.010
234.85	0.010
235.06	0.011
235.27	0.012
235.49	0.013
235.70	0.012
235.91	0.011
236.13	0.013
236.34	0.013
236.56	0.010
236.77	0.010
236.98	0.011
237.20	0.011
237.41	0.012
237.62	0.012
237.84	0.010
238.05	0.010
238.26	0.008
238.48	0.007
238.69	0.009
238.91	0.010
239.12	0.010
239.33	0.009
239.55	0.008
239.76	0.008
239.97	0.008
240.19	0.008
240.40	0.008
240.61	0.009
240.83	0.008
241.04	0.006
241.25	0.007
241.47	0.007
241.68	0.008
241.89	0.008
242.11	0.008
242.32	0.007
242.53	0.007
242.75	0.008
242.96	0.008
243.17	0.009
243.39	0.010
243.60	0.008
243.81	0.008
244.03	0.008
244.24	0.008
244.45	0.009
244.67	0.009
244.88	0.010
245.09	0.009
245.31	0.009
245.52	0.009
245.73	0.009
245.95	0.010
246.16	0.010
246.37	0.010
246.59	0.010
246.80	0.010
247.01	0.010
247.23	0.009
247.44	0.009
247.65	0.009
247.87	0.009
248.08	0.009
248.29	0.009
248.51	0.009
248.72	0.009
248.93	0.009
249.15	0.009
249.36	0.009
249.57	0.009
249.78	0.009
250.00	0.009
250.21	0.009
250.42	0.009
250.64	0.009
250.85	0.009
251.06	0.009
251.28	0.009
251.49	0.009
251.70	0.009
251.92	0.009
252.13	0.009
252.34	0.010
252.55	0.009
252.77	0.009
252.98	0.009
253.19	0.009
253.41	0.009
253.62	0.009
253.83	0.009
254.05	0.009
254.26	0.009
254.47	0.009
254.68	0.009
254.90	0.009
255.11	0.009
255.32	0.009
255.54	0.009
255.75	0.009
255.96	0.009
256.17	0.009
256.39	0.009
256.60	0.009
256.81	0.009
257.03	0.010
257.24	0.010
257.45	0.010
257.66	0.009
257.88	0.009
258.09	0.009
258.30	0.009
258.51	0.009
258.73	0.009
258.94	0.009
259.15	0.009
259.37	0.009
259.58	0.008
259.79	0.008
260.00	0.009
260.22	0.009
260.43	0.008
260.64	0.008
260.85	0.008
261.07	0.008
261.28	0.008
261.49	0.008
261.71	0.008
261.92	0.009
262.13	0.008
262.34	0.009
262.56	0.008
262.77	0.009
262.98	0.008
263.19	0.008
263.41	0.008
263.62	0.008
263.83	0.007
264.04	0.007
264.26	0.007
264.47	0.007
264.68	0.007
264.89	0.008
265.11	0.007
265.32	0.008
265.53	0.008
265.74	0.008
265.96	0.008
266.17	0.008
266.38	0.008
266.59	0.009
266.81	0.008
267.02	0.008
267.23	0.008
267.44	0.008
267.65	0.007
267.87	0.007
268.08	0.007
268.29	0.008
268.50	0.008
268.72	0.008
268.93	0.008
269.14	0.008
269.35	0.008
269.57	0.008
269.78	0.009
269.99	0.009
270.20	0.009
270.41	0.008
270.63	0.008
270.84	0.008
271.05	0.008
271.26	0.007
271.48	0.007
271.69	0.007
271.90	0.007
272.11	0.007
272.32	0.006
272.54	0.006
272.75	0.007
272.96	0.007
273.17	0.007
273.39	0.007
273.60	0.007
273.81	0.006
274.02	0.006
274.23	0.007
274.45	0.007
274.66	0.007
274.87	0.007
275.08	0.006
275.29	0.006
275.51	0.006
275.72	0.006
275.93	0.006
276.14	0.007
276.35	0.007
276.57	0.006
276.78	0.007
276.99	0.007
277.20	0.007
277.41	0.007
277.63	0.007
277.84	0.007
278.05	0.007
278.26	0.007
278.47	0.007
278.69	0.007
278.90	0.007
279.11	0.007
279.32	0.007
279.53	0.007
279.74	0.007
279.96	0.007
280.17	0.007
280.38	0.007
280.59	0.007
280.80	0.007
281.02	0.007
281.23	0.007
281.44	0.007
281.65	0.007
281.86	0.007
282.07	0.007
282.29	0.007
282.50	0.007
282.71	0.007
282.92	0.007
283.13	0.007
283.35	0.007
283.56	0.007
283.77	0.007
283.98	0.007
284.19	0.007
284.40	0.007
284.62	0.007
284.83	0.007
285.04	0.007
285.25	0.006
285.46	0.007
285.67	0.007
285.88	0.007
286.10	0.007
286.31	0.007
286.52	0.007
286.73	0.007
286.94	0.007
287.15	0.007
287.37	0.007
287.58	0.007
287.79	0.008
288.00	0.008
288.21	0.008
288.42	0.008
288.63	0.008
288.85	0.008
289.06	0.008
289.27	0.008
289.48	0.008
289.69	0.007
289.90	0.007
290.11	0.007
290.33	0.007
290.54	0.007
290.75	0.007
290.96	0.007
291.17	0.007
291.38	0.007
291.59	0.007
291.81	0.007
292.02	0.008
292.23	0.008
292.44	0.008
292.65	0.007
292.86	0.008
293.07	0.008
293.28	0.007
293.50	0.008
293.71	0.008
293.92	0.008
294.13	0.008
294.34	0.008
294.55	0.008
294.76	0.008
294.97	0.008
295.19	0.008
295.40	0.008
295.61	0.008
295.82	0.008
296.03	0.007
296.24	0.008
296.45	0.007
296.66	0.007
296.87	0.007
297.09	0.007
297.30	0.007
297.51	0.007
297.72	0.007
297.93	0.007
298.14	0.007
298.35	0.007
298.56	0.007
298.77	0.007
298.99	0.007
299.20	0.007
299.41	0.007
299.62	0.007
299.83	0.007
300.04	0.007
300.25	0.007
300.46	0.007
300.67	0.008
300.88	0.008
301.10	0.008
301.31	0.008
301.52	0.007
301.73	0.007
301.94	0.008
302.15	0.007
302.36	0.007
302.57	0.007
302.78	0.007
302.99	0.007
303.20	0.007
303.41	0.007
303.63	0.007
303.84	0.007
304.05	0.007
304.26	0.007
304.47	0.007
304.68	0.007
304.89	0.007
305.10	0.007
305.31	0.007
305.52	0.007
305.73	0.007
305.94	0.007
306.15	0.007
306.37	0.007
306.58	0.007
306.79	0.007
307.00	0.007
307.21	0.007
307.42	0.007
307.63	0.007
307.84	0.007
308.05	0.007
308.26	0.007
308.47	0.007
308.68	0.007
308.89	0.007
309.10	0.007
309.31	0.007
309.52	0.007
309.73	0.007
309.95	0.007
310.16	0.006
310.37	0.006
310.58	0.006
310.79	0.006
311.00	0.006
311.21	0.006
311.42	0.006
311.63	0.006
311.84	0.006
312.05	0.006
312.26	0.006
312.47	0.006
312.68	0.007
312.89	0.006
313.10	0.007
313.31	0.007
313.52	0.007
313.73	0.007
313.94	0.007
314.15	0.007
314.36	0.007
314.57	0.007
314.78	0.007
314.99	0.007
315.21	0.007
315.42	0.007
315.63	0.007
315.84	0.007
316.05	0.007
316.26	0.007
316.47	0.007
316.68	0.007
316.89	0.007
317.10	0.006
317.31	0.007
317.52	0.006
317.73	0.007
317.94	0.007
318.15	0.007
318.36	0.007
318.57	0.007
318.78	0.007
318.99	0.006
319.20	0.007
319.41	0.007
319.62	0.007
319.83	0.007
320.04	0.007
320.25	0.006
320.46	0.006
320.67	0.006
320.88	0.006
321.09	0.006
321.30	0.006
321.51	0.006
321.72	0.006
321.93	0.006
322.14	0.006
322.35	0.006
322.56	0.006
322.77	0.006
322.98	0.006
323.19	0.006
323.40	0.006
323.61	0.006
323.82	0.006
324.03	0.006
324.24	0.006
324.45	0.006
324.66	0.006
324.87	0.006
325.08	0.006
325.29	0.006
325.50	0.006
325.71	0.006
325.92	0.006
326.13	0.006
326.34	0.006
326.55	0.006
326.76	0.006
326.97	0.006
327.18	0.006
327.39	0.006
327.60	0.006
327.80	0.006
328.01	0.006
328.22	0.006
328.43	0.006
328.64	0.006
328.85	0.006
329.06	0.006
329.27	0.006
329.48	0.006
329.69	0.006
329.90	0.006
330.11	0.006
330.32	0.006
330.53	0.006
330.74	0.006
330.95	0.006
331.16	0.006
331.37	0.006
331.58	0.006
331.79	0.006
332.00	0.006
332.21	0.006
332.42	0.006
332.63	0.006
332.83	0.006
333.04	0.006
333.25	0.006
333.46	0.006
333.67	0.006
333.88	0.006
334.09	0.006
334.30	0.006
334.51	0.006
334.72	0.006
334.93	0.006
335.14	0.006
335.35	0.006
335.56	0.006
335.77	0.005
335.98	0.005
336.18	0.005
336.39	0.005
336.60	0.005
336.81	0.005
337.02	0.005
337.23	0.006
337.44	0.006
337.65	0.006
337.86	0.006
338.07	0.006
338.28	0.006
338.49	0.006
338.70	0.006
338.91	0.006
339.11	0.006
339.32	0.006
339.53	0.006
339.74	0.006
339.95	0.006
340.16	0.006
340.37	0.006
340.58	0.006
340.79	0.006
341.00	0.006
341.21	0.006
341.41	0.006
341.62	0.006
341.83	0.006
342.04	0.006
342.25	0.006
342.46	0.006
342.67	0.005
342.88	0.005
343.09	0.006
343.30	0.006
343.50	0.005
343.71	0.005
343.92	0.006
344.13	0.005
344.34	0.005
344.55	0.005
344.76	0.005
344.97	0.005
345.18	0.005
345.38	0.005
345.59	0.005
345.80	0.005
346.01	0.005
346.22	0.005
346.43	0.005
346.64	0.005
346.85	0.005
347.06	0.005
347.26	0.005
347.47	0.005
347.68	0.005
347.89	0.005
348.10	0.005
348.31	0.005
348.52	0.005
348.73	0.005
348.93	0.005
349.14	0.005
349.35	0.005
349.56	0.005
349.77	0.005
349.98	0.005
350.19	0.005
350.39	0.005
350.60	0.005
350.81	0.004
351.02	0.004
351.23	0.004
351.44	0.004
351.65	0.005
351.86	0.005
352.06	0.005
352.27	0.005
352.48	0.005
352.69	0.005
352.90	0.005
353.11	0.004
353.31	0.005
353.52	0.005
353.73	0.005
353.94	0.005
354.15	0.004
354.36	0.004
354.57	0.004
354.77	0.004
354.98	0.005
355.19	0.005
355.40	0.005
355.61	0.005
355.82	0.005
356.02	0.005
356.23	0.005
356.44	0.005
356.65	0.005
356.86	0.005
357.07	0.005
357.27	0.005
357.48	0.005
357.69	0.005
357.90	0.005
358.11	0.005
358.32	0.005
358.52	0.004
358.73	0.004
358.94	0.004
359.15	0.004
359.36	0.004
359.56	0.004
359.77	0.004
359.98	0.004
360.19	0.004
360.40	0.004
360.61	0.004
360.81	0.004
361.02	0.004
361.23	0.005
361.44	0.004
361.65	0.004
361.85	0.004
362.06	0.004
362.27	0.004
362.48	0.005
362.69	0.004
362.89	0.004
363.10	0.005
363.31	0.005
363.52	0.005
363.73	0.005
363.93	0.005
364.14	0.005
364.35	0.005
364.56	0.004
364.77	0.005
364.97	0.005
365.18	0.005
365.39	0.004
365.60	0.004
365.81	0.004
366.01	0.004
366.22	0.004
366.43	0.004
366.64	0.004
366.84	0.005
367.05	0.005
367.26	0.005
367.47	0.005
367.68	0.005
367.88	0.005
368.09	0.005
368.30	0.005
368.51	0.005
368.71	0.005
368.92	0.005
369.13	0.005
369.34	0.005
369.55	0.005
369.75	0.005
369.96	0.005
370.17	0.005
370.38	0.004
370.58	0.004
370.79	0.004
371.00	0.004
371.21	0.004
371.41	0.004
371.62	0.004
371.83	0.004
372.04	0.005
372.24	0.005
372.45	0.004
372.66	0.005
372.87	0.005
373.07	0.004
373.28	0.005
373.49	0.005
373.70	0.004
373.90	0.004
374.11	0.004
374.32	0.004
374.53	0.004
374.73	0.004
374.94	0.004
375.15	0.004
375.36	0.004
375.56	0.004
375.77	0.004
375.98	0.004
376.19	0.004
376.39	0.004
376.60	0.004
376.81	0.004
377.02	0.004
377.22	0.004
377.43	0.004
377.64	0.004
377.84	0.004
378.05	0.004
378.26	0.004
378.47	0.004
378.67	0.004
378.88	0.004
379.09	0.004
379.30	0.004
379.50	0.004
379.71	0.004
379.92	0.004
380.12	0.004
380.33	0.004
380.54	0.004
380.75	0.004
380.95	0.004
381.16	0.004
381.37	0.004
381.57	0.004
381.78	0.004
381.99	0.004
382.20	0.004
382.40	0.004
382.61	0.004
382.82	0.004
383.02	0.004
383.23	0.004
383.44	0.004
383.64	0.004
383.85	0.004
384.06	0.004
384.27	0.004
384.47	0.004
384.68	0.004
384.89	0.004
385.09	0.004
385.30	0.004
385.51	0.004
385.71	0.004
385.92	0.004
386.13	0.004
386.33	0.004
386.54	0.004
386.75	0.004
386.95	0.004
387.16	0.004
387.37	0.004
387.58	0.004
387.78	0.004
387.99	0.004
388.20	0.004
388.40	0.004
388.61	0.004
388.82	0.004
389.02	0.004
389.23	0.004
389.44	0.004
389.64	0.004
389.85	0.004
390.06	0.004
390.26	0.004
390.47	0.004
390.68	0.003
390.88	0.004
391.09	0.004
391.30	0.004
391.50	0.004
391.71	0.004
391.92	0.004
392.12	0.004
392.33	0.004
392.53	0.004
392.74	0.004
392.95	0.004
393.15	0.004
393.36	0.004
393.57	0.004
393.77	0.004
393.98	0.004
394.19	0.004
394.39	0.004
394.60	0.004
394.81	0.004
395.01	0.004
395.22	0.004
395.43	0.004
395.63	0.004
395.84	0.004
396.04	0.004
396.25	0.004
396.46	0.004
396.66	0.004
396.87	0.004
397.08	0.004
397.28	0.004
397.49	0.004
397.69	0.004
397.90	0.004
398.11	0.004
398.31	0.004
398.52	0.004
398.73	0.004
398.93	0.004
399.14	0.004
399.34	0.004
399.55	0.004
399.76	0.004
399.96	0.004
400.17	0.004
400.37	0.004
400.58	0.003
400.79	0.003
400.99	0.003
401.20	0.003
401.41	0.004
401.61	0.004
401.82	0.004
402.02	0.004
402.23	0.004
402.44	0.004
402.64	0.004
402.85	0.004
403.05	0.004
403.26	0.004
403.47	0.004
403.67	0.004
403.88	0.004
404.08	0.004
404.29	0.004
404.50	0.004
404.70	0.004
404.91	0.004
405.11	0.004
405.32	0.003
405.52	0.003
405.73	0.003
405.94	0.003
406.14	0.003
406.35	0.003
406.55	0.003
406.76	0.003
406.97	0.003
407.17	0.003
407.38	0.003
407.58	0.003
407.79	0.003
407.99	0.003
408.20	0.003
408.41	0.004
408.61	0.004
408.82	0.004
409.02	0.004
409.23	0.004
409.43	0.004
409.64	0.004
409.84	0.004
410.05	0.004
410.26	0.004
410.46	0.004
410.67	0.004
410.87	0.004
411.08	0.004
411.28	0.004
411.49	0.004
411.69	0.003
411.90	0.003
412.11	0.003
412.31	0.003
412.52	0.003
412.72	0.003
412.93	0.003
413.13	0.003
413.34	0.003
413.54	0.003
413.75	0.003
413.95	0.004
414.16	0.004
414.37	0.004
414.57	0.004
414.78	0.004
414.98	0.004
415.19	0.004
415.39	0.004
415.60	0.004
415.80	0.004
416.01	0.003
416.21	0.003
416.42	0.004
416.62	0.003
416.83	0.003
417.03	0.003
417.24	0.003
417.44	0.003
417.65	0.003
417.86	0.003
418.06	0.003
418.27	0.003
418.47	0.003
418.68	0.003
418.88	0.003
419.09	0.003
419.29	0.003
419.50	0.003
419.70	0.003
419.91	0.003
420.11	0.003
420.32	0.003
420.52	0.003
420.73	0.003
420.93	0.003
421.14	0.003
421.34	0.003
421.55	0.003
421.75	0.003
421.96	0.003
422.16	0.003
422.37	0.003
422.57	0.003
422.78	0.003
422.98	0.003
423.19	0.003
423.39	0.003
423.60	0.003
423.80	0.003
424.01	0.003
424.21	0.003
424.42	0.003
424.62	0.003
424.83	0.003
425.03	0.003
425.23	0.003
425.44	0.003
425.64	0.003
425.85	0.003
426.05	0.003
426.26	0.003
426.46	0.003
426.67	0.003
426.87	0.003
427.08	0.003
427.28	0.003
427.49	0.003
427.69	0.003
427.90	0.003
428.10	0.004
428.31	0.004
428.51	0.004
428.71	0.004
428.92	0.003
429.12	0.004
429.33	0.004
429.53	0.004
429.74	0.004
429.94	0.004
430.15	0.003
430.35	0.003
430.56	0.003
430.76	0.003
430.96	0.003
431.17	0.003
431.37	0.003
431.58	0.003
431.78	0.003
431.99	0.003
432.19	0.003
432.40	0.003
432.60	0.003
432.80	0.003
433.01	0.003
433.21	0.003
433.42	0.003
433.62	0.003
433.83	0.003
434.03	0.003
434.23	0.003
434.44	0.003
434.64	0.003
434.85	0.003
435.05	0.004
435.26	0.003
435.46	0.003
435.66	0.003
435.87	0.003
436.07	0.003
436.28	0.003
436.48	0.003
436.69	0.003
436.89	0.003
437.09	0.003
437.30	0.003
437.50	0.003
437.71	0.003
437.91	0.003
438.11	0.003
438.32	0.003
438.52	0.003
438.73	0.003
438.93	0.003
439.13	0.003
439.34	0.003
439.54	0.003
439.75	0.003
439.95	0.003
440.15	0.003
440.36	0.003
440.56	0.003
440.77	0.003
440.97	0.003
441.17	0.003
441.38	0.003
441.58	0.003
441.79	0.003
441.99	0.003
442.19	0.003
442.40	0.003
442.60	0.003
442.81	0.003
443.01	0.003
443.21	0.003
443.42	0.003
443.62	0.003
443.82	0.003
444.03	0.003
444.23	0.003
444.44	0.003
444.64	0.003
444.84	0.003
445.05	0.003
445.25	0.003
445.45	0.003
445.66	0.003
445.86	0.003
446.06	0.003
446.27	0.003
446.47	0.003
446.68	0.003
446.88	0.003
447.08	0.003
447.29	0.003
447.49	0.003
447.69	0.003
447.90	0.003
448.10	0.003
448.30	0.003
448.51	0.003
448.71	0.003
448.91	0.003
449.12	0.003
449.32	0.002
449.52	0.003
449.73	0.003
449.93	0.003
450.14	0.003
450.34	0.003
450.54	0.002
450.75	0.002
450.95	0.003
451.15	0.003
451.36	0.003
451.56	0.003
451.76	0.003
451.97	0.002
452.17	0.002
452.37	0.002
452.58	0.002
452.78	0.003
452.98	0.002
453.19	0.002
453.39	0.002
453.59	0.003
453.79	0.002
454.00	0.003
454.20	0.003
454.40	0.003
454.61	0.003
454.81	0.003
455.01	0.003
455.22	0.003
455.42	0.003
455.62	0.002
455.83	0.002
456.03	0.003
456.23	0.003
456.44	0.003
456.64	0.003
456.84	0.003
457.04	0.003
457.25	0.003
457.45	0.003
457.65	0.003
457.86	0.003
458.06	0.003
458.26	0.003
458.47	0.003
458.67	0.003
458.87	0.003
459.07	0.003
459.28	0.003
459.48	0.003
459.68	0.003
459.89	0.002
460.09	0.002
460.29	0.002
460.49	0.002
460.70	0.002
460.90	0.003
461.10	0.003
461.31	0.003
461.51	0.003
461.71	0.003
461.91	0.003
462.12	0.003
462.32	0.003
462.52	0.003
462.72	0.003
462.93	0.003
463.13	0.003
463.33	0.002
463.53	0.003
463.74	0.002
463.94	0.003
464.14	0.003
464.35	0.003
464.55	0.003
464.75	0.003
464.95	0.003
465.16	0.003
465.36	0.003
465.56	0.003
465.76	0.003
465.97	0.003
466.17	0.003
466.37	0.003
466.57	0.003
466.78	0.003
466.98	0.003
467.18	0.002
467.38	0.003
467.59	0.003
467.79	0.003
467.99	0.003
468.19	0.003
468.39	0.002
468.60	0.003
468.80	0.002
469.00	0.002
469.20	0.002
469.41	0.002
469.61	0.002
469.81	0.002
470.01	0.002
470.22	0.002
470.42	0.002
470.62	0.002
470.82	0.002
471.02	0.002
471.23	0.002
471.43	0.002
471.63	0.003
471.83	0.003
472.04	0.003
472.24	0.003
472.44	0.002
472.64	0.002
472.84	0.002
473.05	0.002
473.25	0.002
473.45	0.002
473.65	0.002
473.85	0.002
474.06	0.002
474.26	0.002
474.46	0.002
474.66	0.003
474.86	0.003
475.07	0.003
475.27	0.003
475.47	0.003
475.67	0.003
475.87	0.003
476.08	0.003
476.28	0.003
476.48	0.003
476.68	0.003
476.88	0.003
477.09	0.003
477.29	0.003
477.49	0.003
477.69	0.003
477.89	0.003
478.09	0.003
478.30	0.003
478.50	0.003
478.70	0.003
478.90	0.003
479.10	0.002
479.31	0.002
479.51	0.002
479.71	0.002
479.91	0.002
480.11	0.002
480.31	0.002
480.52	0.002
480.72	0.002
480.92	0.002
481.12	0.002
481.32	0.002
481.52	0.002
481.72	0.002
481.93	0.002
482.13	0.002
482.33	0.002
482.53	0.002
482.73	0.002
482.93	0.003
483.14	0.003
483.34	0.003
483.54	0.003
483.74	0.003
483.94	0.003
484.14	0.003
484.34	0.003
484.55	0.003
484.75	0.003
484.95	0.003
485.15	0.003
485.35	0.003
485.55	0.003
485.75	0.003
485.96	0.003
486.16	0.002
486.36	0.002
486.56	0.002
486.76	0.002
486.96	0.002
487.16	0.002
487.36	0.002
487.57	0.002
487.77	0.002
487.97	0.002
488.17	0.002
488.37	0.002
488.57	0.002
488.77	0.002
488.97	0.002
489.18	0.002
489.38	0.002
489.58	0.002
489.78	0.002
489.98	0.002
490.18	0.002
490.38	0.002
490.58	0.002
490.78	0.002
490.98	0.002
491.19	0.002
491.39	0.002
491.59	0.002
491.79	0.002
491.99	0.002
492.19	0.002
492.39	0.002
492.59	0.002
492.79	0.002
492.99	0.002
493.20	0.002
493.40	0.002
493.60	0.002
493.80	0.002
494.00	0.002
494.20	0.002
494.40	0.002
494.60	0.002
494.80	0.002
495.00	0.002
495.20	0.002
495.40	0.002
495.61	0.002
495.81	0.002
496.01	0.002
496.21	0.002
496.41	0.002
496.61	0.002
496.81	0.002
497.01	0.002
497.21	0.002
497.41	0.002
497.61	0.003
497.81	0.003
498.01	0.002
498.21	0.003
498.41	0.002
498.61	0.002
498.82	0.002
499.02	0.002
499.22	0.002
499.42	0.002
499.62	0.002
499.82	0.002
500.02	0.002
500.22	0.002
500.42	0.002
500.62	0.002
500.82	0.002
501.02	0.002
501.22	0.002
501.42	0.002
501.62	0.002
501.82	0.002
502.02	0.002
502.22	0.002
502.42	0.002
502.62	0.002
502.82	0.002
503.02	0.002
503.22	0.002
503.42	0.002
503.63	0.002
503.83	0.002
504.03	0.002
504.23	0.002
504.43	0.002
504.63	0.002
504.83	0.002
505.03	0.002
505.23	0.002
505.43	0.002
505.63	0.002
505.83	0.002
506.03	0.002
506.23	0.002
506.43	0.002
506.63	0.002
506.83	0.002
507.03	0.002
507.23	0.002
507.43	0.002
507.63	0.002
507.83	0.002
508.03	0.002
508.23	0.002
508.43	0.002
508.63	0.002
508.83	0.002
509.03	0.002
509.23	0.002
509.43	0.002
509.63	0.002
509.83	0.002
510.03	0.002
510.23	0.002
510.43	0.002
510.63	0.002
510.83	0.002
511.03	0.002
511.23	0.002
511.43	0.002
511.63	0.002
511.83	0.002
512.03	0.002
512.22	0.002
512.42	0.002
512.62	0.002
512.82	0.002
513.02	0.002
513.22	0.002
513.42	0.002
513.62	0.002
513.82	0.002
514.02	0.002
514.22	0.002
514.42	0.002
514.62	0.002
514.82	0.002
515.02	0.002
515.22	0.002
515.42	0.002
515.62	0.002
515.82	0.002
516.02	0.002
516.22	0.002
516.42	0.002
516.62	0.002
516.82	0.002
517.01	0.002
517.21	0.002
517.41	0.002
517.61	0.002
517.81	0.002
518.01	0.002
518.21	0.002
518.41	0.002
518.61	0.002
518.81	0.002
519.01	0.003
519.21	0.003
519.41	0.002
519.61	0.002
519.81	0.002
520.00	0.002
520.20	0.002
520.40	0.002
520.60	0.002
520.80	0.002
521.00	0.002
521.20	0.002
521.40	0.002
521.60	0.002
521.80	0.002
522.00	0.003
522.20	0.002
522.39	0.002
522.59	0.002
522.79	0.002
522.99	0.002
523.19	0.002
523.39	0.002
523.59	0.002
523.79	0.002
523.99	0.002
524.19	0.002
524.38	0.002
524.58	0.002
524.78	0.002
524.98	0.002
525.18	0.002
525.38	0.002
525.58	0.002
525.78	0.002
525.98	0.002
526.18	0.002
526.37	0.002
526.57	0.002
526.77	0.002
526.97	0.002
527.17	0.002
527.37	0.002
527.57	0.002
527.77	0.002
527.96	0.002
528.16	0.002
528.36	0.002
528.56	0.002
528.76	0.002
528.96	0.002
529.16	0.002
529.36	0.002
529.55	0.002
529.75	0.002
529.95	0.002
530.15	0.002
530.35	0.002
530.55	0.002
530.75	0.002
530.94	0.002
531.14	0.002
531.34	0.002
531.54	0.002
531.74	0.002
531.94	0.002
532.13	0.002
532.33	0.002
532.53	0.002
532.73	0.002
532.93	0.002
533.13	0.002
533.33	0.002
533.52	0.002
533.72	0.002
533.92	0.002
534.12	0.002
534.32	0.002
534.52	0.002
534.71	0.002
534.91	0.002
535.11	0.002
535.31	0.002
535.51	0.002
535.71	0.002
535.90	0.002
536.10	0.002
536.30	0.002
536.50	0.002
536.70	0.002
536.89	0.002
537.09	0.002
537.29	0.002
537.49	0.002
537.69	0.002
537.89	0.002
538.08	0.002
538.28	0.002
538.48	0.002
538.68	0.002
538.88	0.002
539.07	0.002
539.27	0.002
539.47	0.002
539.67	0.002
539.87	0.002
540.06	0.002
540.26	0.002
540.46	0.002
540.66	0.002
540.86	0.002
541.05	0.002
541.25	0.002
541.45	0.002
541.65	0.002
541.84	0.002
542.04	0.002
542.24	0.002
542.44	0.002
542.64	0.002
542.83	0.002
543.03	0.001
543.23	0.001
543.43	0.001
543.62	0.001
543.82	0.001
544.02	0.001
544.22	0.002
544.42	0.002
544.61	0.002
544.81	0.002
545.01	0.002
545.21	0.002
545.40	0.002
545.60	0.002
545.80	0.002
546.00	0.002
546.19	0.002
546.39	0.002
546.59	0.002
546.79	0.002
546.98	0.002
547.18	0.002
547.38	0.002
547.58	0.002
547.77	0.002
547.97	0.002
548.17	0.002
548.37	0.002
548.56	0.002
548.76	0.002
548.96	0.002
549.16	0.002
549.35	0.002
549.55	0.002
549.75	0.002
549.95	0.002
550.14	0.002
550.34	0.002
550.54	0.002
550.73	0.002
550.93	0.002
551.13	0.002
551.33	0.002
551.52	0.001
551.72	0.002
551.92	0.002
552.12	0.002
552.31	0.002
552.51	0.002
552.71	0.002
552.90	0.002
553.10	0.002
553.30	0.002
553.50	0.002
553.69	0.002
553.89	0.002
554.09	0.002
554.28	0.002
554.48	0.002
554.68	0.002
554.87	0.002
555.07	0.002
555.27	0.002
555.47	0.002
555.66	0.002
555.86	0.002
556.06	0.002
556.25	0.002
556.45	0.002
556.65	0.002
556.84	0.002
557.04	0.002
557.24	0.002
557.43	0.002
557.63	0.002
557.83	0.002
558.02	0.002
558.22	0.002
558.42	0.002
558.61	0.002
558.81	0.002
559.01	0.002
559.21	0.002
559.40	0.002
559.60	0.002
559.80	0.002
559.99	0.002
560.19	0.002
560.39	0.002
560.58	0.002
560.78	0.002
560.97	0.002
561.17	0.002
561.37	0.002
561.56	0.002
561.76	0.002
561.96	0.002
562.15	0.002
562.35	0.002
562.55	0.001
562.74	0.001
562.94	0.001
563.14	0.001
563.33	0.001
563.53	0.001
563.73	0.001
563.92	0.001
564.12	0.001
564.31	0.001
564.51	0.001
564.71	0.002
564.90	0.002
565.10	0.002
565.30	0.002
565.49	0.002
565.69	0.002
565.89	0.002
566.08	0.002
566.28	0.002
566.47	0.002
566.67	0.002
566.87	0.002
567.06	0.002
567.26	0.002
567.46	0.002
567.65	0.002
567.85	0.002
568.04	0.002
568.24	0.002
568.44	0.002
568.63	0.002
568.83	0.002
569.02	0.002
569.22	0.002
569.42	0.002
569.61	0.002
569.81	0.002
570.00	0.002
570.20	0.002
570.40	0.002
570.59	0.002
570.79	0.002
570.98	0.002
571.18	0.002
571.38	0.002
571.57	0.002
571.77	0.002
571.96	0.002
572.16	0.002
572.35	0.002
572.55	0.002
572.75	0.002
572.94	0.002
573.14	0.002
573.33	0.002
573.53	0.002
573.73	0.002
573.92	0.002
574.12	0.002
574.31	0.002
574.51	0.002
574.70	0.002
574.90	0.002
575.09	0.001
575.29	0.001
575.49	0.001
575.68	0.001
575.88	0.001
576.07	0.001
576.27	0.000
576.46	0.000
576.66	0.000
576.86	0.000
577.05	0.000
577.25	0.000
577.44	0.000
577.64	0.000
577.83	0.000
578.03	0.000
578.22	0.000
578.42	0.000
578.61	0.000
578.81	0.000
579.00	0.000
579.20	0.000
579.40	0.000
579.59	0.000
579.79	0.000
579.98	0.000
580.18	0.000
580.37	0.000
580.57	0.000
580.76	0.000
580.96	0.000
581.15	0.000
581.35	0.000
581.54	0.000
581.74	0.000
581.93	0.000
582.13	0.000
582.32	0.000
582.52	0.000
582.71	0.000
582.91	0.000
583.10	0.000
583.30	0.000
583.49	0.000
583.69	0.000
583.88	0.000
584.08	0.000
584.27	0.000
584.47	0.000
584.66	0.000
584.86	0.000
585.05	0.000
585.25	0.000
585.44	0.000
585.64	0.000
585.83	0.000
586.03	0.000
586.22	0.000
586.42	0.000
586.61	0.000
586.81	0.000
587.00	0.001
587.20	0.001
587.39	0.001
587.59	0.001
587.78	0.001
587.98	0.001
588.17	0.002
588.37	0.002
588.56	0.002
588.76	0.002
588.95	0.002
589.15	0.002
589.34	0.002
589.54	0.001
589.73	0.002
589.92	0.002
590.12	0.002
590.31	0.002
590.51	0.002
590.70	0.002
590.90	0.002
591.09	0.002
591.29	0.002
591.48	0.002
591.68	0.002
591.87	0.002
592.06	0.002
592.26	0.002
592.45	0.002
592.65	0.002
592.84	0.002
593.04	0.002
593.23	0.002
593.43	0.002
593.62	0.002
593.81	0.002
594.01	0.002
594.20	0.002
594.40	0.002
594.59	0.002
594.79	0.002
594.98	0.002
595.17	0.002
595.37	0.002
595.56	0.002
595.76	0.002
595.95	0.002
596.14	0.002
596.34	0.002
596.53	0.002
596.73	0.002
596.92	0.002
597.12	0.002
597.31	0.002
597.50	0.002
597.70	0.002
597.89	0.002
598.09	0.002
598.28	0.002
598.47	0.002
598.67	0.002
598.86	0.002
599.06	0.002
599.25	0.002
599.44	0.002
599.64	0.002
599.83	0.002
600.03	0.002
600.22	0.002
600.41	0.002
600.61	0.002
600.80	0.002
601.00	0.002
601.19	0.002
601.38	0.002
601.58	0.002
601.77	0.002
601.96	0.002
602.16	0.002
602.35	0.002
602.55	0.002
602.74	0.002
602.93	0.002
603.13	0.002
603.32	0.002
603.51	0.002
603.71	0.002
603.90	0.002
604.09	0.002
604.29	0.002
604.48	0.002
604.68	0.002
604.87	0.002
605.06	0.002
605.26	0.002
605.45	0.002
605.64	0.002
605.84	0.002
606.03	0.002
606.22	0.002
606.42	0.002
606.61	0.002
606.80	0.002
607.00	0.002
607.19	0.002
607.38	0.001
607.58	0.001
607.77	0.001
607.96	0.001
608.16	0.001
608.35	0.001
608.54	0.001
608.74	0.001
608.93	0.001
609.12	0.001
609.32	0.001
609.51	0.001
609.70	0.002
609.90	0.002
610.09	0.002
610.28	0.002
610.48	0.002
610.67	0.002
610.86	0.002
611.06	0.002
611.25	0.002
611.44	0.002
611.64	0.002
611.83	0.002
612.02	0.002
612.21	0.002
612.41	0.002
612.60	0.002
612.79	0.002
612.99	0.002
613.18	0.002
613.37	0.002
613.57	0.002
613.76	0.002
613.95	0.002
614.14	0.002
614.34	0.002
614.53	0.002
614.72	0.002
614.92	0.002
615.11	0.002
615.30	0.002
615.49	0.002
615.69	0.002
615.88	0.002
616.07	0.002
616.26	0.002
616.46	0.002
616.65	0.002
616.84	0.002
617.04	0.002
617.23	0.002
617.42	0.002
617.61	0.002
617.81	0.002
618.00	0.002
618.19	0.002
618.38	0.002
618.58	0.002
618.77	0.002
618.96	0.002
619.15	0.002
619.35	0.002
619.54	0.002
619.73	0.002
619.92	0.002
620.12	0.002
620.31	0.002
620.50	0.002
620.69	0.002
620.89	0.002
621.08	0.002
621.27	0.002
621.46	0.002
621.66	0.002
621.85	0.002
622.04	0.002
622.23	0.002
622.43	0.002
622.62	0.002
622.81	0.002
623.00	0.002
623.19	0.002
623.39	0.002
623.58	0.001
623.77	0.001
623.96	0.001
624.16	0.001
624.35	0.002
624.54	0.001
624.73	0.001
624.92	0.001
625.12	0.001
625.31	0.002
625.50	0.002
625.69	0.002
625.88	0.002
626.08	0.002
626.27	0.002
626.46	0.002
626.65	0.002
626.84	0.002
627.04	0.002
627.23	0.002
627.42	0.001
627.61	0.001
627.80	0.001
628.00	0.001
628.19	0.001
628.38	0.001
628.57	0.001
628.76	0.001
628.96	0.001
629.15	0.001
629.34	0.001
629.53	0.001
629.72	0.001
629.91	0.001
630.11	0.002
630.30	0.001
630.49	0.002
630.68	0.002
630.87	0.002
631.06	0.002
631.26	0.002
631.45	0.002
631.64	0.002
631.83	0.002
632.02	0.002
632.21	0.002
632.41	0.002
632.60	0.002
632.79	0.002
632.98	0.002
633.17	0.002
633.36	0.002
633.55	0.002
633.75	0.002
633.94	0.002
634.13	0.002
634.32	0.002
634.51	0.002
634.70	0.002
634.89	0.002
635.09	0.002
635.28	0.002
635.47	0.002
635.66	0.002
635.85	0.002
636.04	0.002
636.23	0.002
636.43	0.002
636.62	0.002
636.81	0.002
637.00	0.002
637.19	0.002
637.38	0.002
637.57	0.002
637.76	0.002
637.95	0.002
638.15	0.002
638.34	0.002
638.53	0.002
638.72	0.002
638.91	0.002
639.10	0.002
639.29	0.002
639.48	0.002
639.67	0.002
639.87	0.002
640.06	0.002
640.25	0.002
640.44	0.002
640.63	0.002
640.82	0.002
641.01	0.002
641.20	0.002
641.39	0.002
641.58	0.002
641.78	0.002
641.97	0.002
642.16	0.002
642.35	0.002
642.54	0.002
642.73	0.002
642.92	0.002
643.11	0.002
643.30	0.002
643.49	0.001
643.68	0.001
643.87	0.001
644.06	0.001
644.25	0.002
644.45	0.001
644.64	0.001
644.83	0.002
645.02	0.002
645.21	0.002
645.40	0.002
645.59	0.002
645.78	0.002
645.97	0.002
646.16	0.002
646.35	0.002
646.54	0.002
646.73	0.002
646.92	0.001
647.11	0.002
647.30	0.001
647.49	0.001
647.68	0.001
647.88	0.001
648.07	0.002
648.26	0.002
648.45	0.001
648.64	0.001
648.83	0.001
649.02	0.001
649.21	0.002
649.40	0.002
649.59	0.002
649.78	0.002
649.97	0.002
650.16	0.002
650.35	0.002
650.54	0.002
650.73	0.002
650.92	0.002
651.11	0.002
651.30	0.002
651.49	0.002
651.68	0.002
651.87	0.002
652.06	0.002
652.25	0.002
652.44	0.002
652.63	0.002
652.82	0.003
653.01	0.003
653.20	0.003
653.39	0.003
653.58	0.002
653.77	0.002
653.96	0.002
654.15	0.002
654.34	0.002
654.53	0.002
654.72	0.002
654.91	0.002
655.10	0.002
655.29	0.002
655.48	0.002
655.67	0.002
655.86	0.002
656.05	0.002
656.24	0.002
656.43	0.002
656.62	0.002
656.81	0.002
657.00	0.001
657.19	0.001
657.38	0.001
657.57	0.001
657.76	0.001
657.95	0.001
658.14	0.001
658.33	0.001
658.51	0.001
658.70	0.001
658.89	0.001
659.08	0.001
659.27	0.001
659.46	0.001
659.65	0.002
659.84	0.002
660.03	0.002
660.22	0.002
660.41	0.002
660.60	0.002
660.79	0.002
660.98	0.002
661.17	0.002
661.36	0.002
661.55	0.002
661.74	0.002
661.92	0.002
662.11	0.002
662.30	0.002
662.49	0.002
662.68	0.002
662.87	0.002
663.06	0.002
663.25	0.002
663.44	0.002
663.63	0.002
663.82	0.002
664.01	0.002
664.20	0.002
664.38	0.002
664.57	0.002
664.76	0.002
664.95	0.002
665.14	0.002
665.33	0.002
665.52	0.002
665.71	0.002
665.90	0.002
666.09	0.002
666.28	0.001
666.46	0.001
666.65	0.001
666.84	0.001
667.03	0.001
667.22	0.001
667.41	0.001
667.60	0.001
667.79	0.001
667.98	0.001
668.16	0.001
668.35	0.001
668.54	0.001
668.73	0.001
668.92	0.001
669.11	0.001
669.30	0.001
669.49	0.001
669.67	0.001
669.86	0.001
670.05	0.002
670.24	0.002
670.43	0.002
670.62	0.001
670.81	0.001
671.00	0.001
671.18	0.001
671.37	0.001
671.56	0.001
671.75	0.001
671.94	0.001
672.13	0.001
672.32	0.001
672.50	0.001
672.69	0.001
672.88	0.001
673.07	0.001
673.26	0.002
673.45	0.002
673.63	0.002
673.82	0.002
674.01	0.001
674.20	0.002
674.39	0.002
674.58	0.002
674.76	0.002
674.95	0.002
675.14	0.002
675.33	0.001
675.52	0.001
675.71	0.001
675.89	0.001
676.08	0.002
676.27	0.002
676.46	0.002
676.65	0.002
676.84	0.002
677.02	0.002
677.21	0.002
677.40	0.002
677.59	0.002
677.78	0.002
677.96	0.002
678.15	0.002
678.34	0.002
678.53	0.002
678.72	0.002
678.90	0.002
679.09	0.002
679.28	0.002
679.47	0.002
679.66	0.002
679.84	0.002
680.03	0.002
680.22	0.001
680.41	0.001
680.60	0.001
680.78	0.001
680.97	0.001
681.16	0.001
681.35	0.001
681.53	0.001
681.72	0.002
681.91	0.001
682.10	0.001
682.29	0.001
682.47	0.002
682.66	0.002
682.85	0.002
683.04	0.002
683.22	0.002
683.41	0.002
683.60	0.002
683.79	0.002
683.97	0.002
684.16	0.002
684.35	0.002
684.54	0.002
684.72	0.002
684.91	0.002
685.10	0.002
685.29	0.002
685.47	0.001
685.66	0.001
685.85	0.001
686.04	0.001
686.22	0.001
686.41	0.001
686.60	0.001
686.79	0.001
686.97	0.001
687.16	0.001
687.35	0.001
687.54	0.001
687.72	0.001
687.91	0.001
688.10	0.001
688.29	0.001
688.47	0.001
688.66	0.001
688.85	0.001
689.03	0.002
689.22	0.002
689.41	0.002
689.60	0.002
689.78	0.002
689.97	0.002
690.16	0.002
690.34	0.002
690.53	0.002
690.72	0.002
690.91	0.002
691.09	0.002
691.28	0.002
691.47	0.001
691.65	0.001
691.84	0.001
692.03	0.001
692.21	0.001
692.40	0.001
692.59	0.001
692.77	0.001
692.96	0.001
693.15	0.001
693.34	0.001
693.52	0.001
693.71	0.001
693.90	0.001
694.08	0.001
694.27	0.001
694.46	0.001
694.64	0.001
694.83	0.001
695.02	0.001
695.20	0.001
695.39	0.001
695.58	0.001
695.76	0.002
695.95	0.002
696.14	0.001
696.32	0.002
696.51	0.002
696.70	0.002
696.88	0.001
697.07	0.001
697.26	0.001
697.44	0.001
697.63	0.001
697.81	0.002
698.00	0.002
698.19	0.002
698.37	0.001
698.56	0.001
698.75	0.002
698.93	0.002
699.12	0.002
699.31	0.002
699.49	0.002
699.68	0.002
699.87	0.002
700.05	0.002
700.24	0.002
700.42	0.002
700.61	0.002
700.80	0.002
700.98	0.002
701.17	0.002
701.36	0.002
701.54	0.002
701.73	0.002
701.91	0.002
702.10	0.002
702.29	0.002
702.47	0.002
702.66	0.002
702.84	0.001
703.03	0.002
703.22	0.002
703.40	0.001
703.59	0.001
703.77	0.001
703.96	0.001
704.15	0.001
704.33	0.001
704.52	0.001
704.70	0.002
704.89	0.002
705.08	0.002
705.26	0.002
705.45	0.002
705.63	0.002
705.82	0.002
706.00	0.002
706.19	0.002
706.38	0.002
706.56	0.002
706.75	0.002
706.93	0.001
707.12	0.002
707.30	0.001
707.49	0.002
707.68	0.001
707.86	0.001
708.05	0.001
708.23	0.001
708.42	0.001
708.60	0.001
708.79	0.001
708.98	0.001
709.16	0.001
709.35	0.001
709.53	0.001
709.72	0.001
709.90	0.001
710.09	0.001
710.27	0.001
710.46	0.001
710.64	0.001
710.83	0.001
711.02	0.001
711.20	0.002
711.39	0.001
711.57	0.002
711.76	0.002
711.94	0.002
712.13	0.002
712.31	0.002
712.50	0.002
712.68	0.002
712.87	0.002
713.05	0.002
713.24	0.002
713.42	0.002
713.61	0.002
713.79	0.002
713.98	0.002
714.16	0.002
714.35	0.002
714.54	0.002
714.72	0.002
714.91	0.002
715.09	0.002
715.28	0.002
715.46	0.002
715.65	0.002
715.83	0.002
716.02	0.002
716.20	0.002
716.39	0.002
716.57	0.001
716.76	0.002
716.94	0.002
717.12	0.002
717.31	0.002
717.49	0.001
717.68	0.002
717.86	0.001
718.05	0.001
718.23	0.001
718.42	0.001
718.60	0.001
718.79	0.001
718.97	0.001
719.16	0.001
719.34	0.001
719.53	0.001
719.71	0.001
719.90	0.001
720.08	0.001
720.27	0.001
720.45	0.001
720.63	0.001
720.82	0.001
721.00	0.001
721.19	0.001
721.37	0.001
721.56	0.001
721.74	0.002
721.93	0.002
722.11	0.002
722.30	0.002
722.48	0.002
722.66	0.002
722.85	0.002
723.03	0.002
723.22	0.002
723.40	0.002
723.59	0.002
723.77	0.002
723.95	0.002
724.14	0.002
724.32	0.002
724.51	0.002
724.69	0.002
724.88	0.002
725.06	0.002
725.24	0.002
725.43	0.002
725.61	0.002
725.80	0.001
725.98	0.001
726.16	0.001
726.35	0.001
726.53	0.001
726.72	0.001
726.90	0.002
727.09	0.001
727.27	0.001
727.45	0.001
727.64	0.002
727.82	0.002
728.01	0.002
728.19	0.002
728.37	0.002
728.56	0.002
728.74	0.002
728.92	0.002
729.11	0.002
729.29	0.003
729.48	0.002
729.66	0.002
729.84	0.001
730.03	0.001
730.21	0.001
730.40	0.001
730.58	0.001
730.76	0.001
730.95	0.001
731.13	0.001
731.31	0.001
731.50	0.001
731.68	0.002
731.86	0.002
732.05	0.002
732.23	0.002
732.42	0.002
732.60	0.003
732.78	0.003
732.97	0.003
733.15	0.002
733.33	0.002
733.52	0.002
733.70	0.002
733.88	0.002
734.07	0.002
734.25	0.002
734.43	0.002
734.62	0.002
734.80	0.001
734.98	0.001
735.17	0.001
735.35	0.001
735.53	0.001
735.72	0.002
735.90	0.002
736.08	0.002
736.27	0.002
736.45	0.001
736.63	0.002
736.82	0.002
737.00	0.002
737.18	0.002
737.37	0.002
737.55	0.002
737.73	0.002
737.92	0.002
738.10	0.001
738.28	0.001
738.46	0.001
738.65	0.000
738.83	0.000
739.01	0.000
739.20	0.000
739.38	0.000
739.56	0.000
739.75	0.000
739.93	0.001
740.11	0.002
740.29	0.002
740.48	0.003
740.66	0.003
740.84	0.003
741.03	0.004
741.21	0.004
741.39	0.004
741.57	0.004
741.76	0.004
741.94	0.003
742.12	0.003
742.31	0.002
742.49	0.002
742.67	0.002
742.85	0.002
743.04	0.002
743.22	0.002
743.40	0.001
743.58	0.001
743.77	0.001
743.95	0.002
744.13	0.002
744.31	0.003
744.50	0.003
744.68	0.003
744.86	0.003
745.04	0.003
745.23	0.002
745.41	0.002
745.59	0.002
745.77	0.003
745.96	0.003
746.14	0.003
746.32	0.002
746.50	0.002
746.69	0.002
746.87	0.001
747.05	0.002
747.23	0.002
747.42	0.002
747.60	0.002
747.78	0.001
747.96	0.002
748.14	0.002
748.33	0.003
748.51	0.003
748.69	0.003
748.87	0.004
749.06	0.004
749.24	0.004
749.42	0.004
749.60	0.004
749.78	0.004
749.97	0.003
750.15	0.003
750.33	0.003
750.51	0.003
750.69	0.002
750.88	0.001
751.06	0.002
751.24	0.002
751.42	0.002
751.60	0.001
751.79	0.002
751.97	0.002
752.15	0.002
752.33	0.001
752.51	0.001
752.69	0.001
752.88	0.002
753.06	0.002
753.24	0.002
753.42	0.002
753.60	0.003
753.78	0.002
753.97	0.002
754.15	0.002
754.33	0.003
754.51	0.002
754.69	0.002
754.87	0.002
755.06	0.002
755.24	0.002
755.42	0.002
755.60	0.002
755.78	0.002
755.96	0.003
756.15	0.002
756.33	0.002
756.51	0.002
756.69	0.002
756.87	0.002
757.05	0.002
757.23	0.002
757.42	0.002
757.60	0.002
757.78	0.002
757.96	0.002
758.14	0.002
758.32	0.002
758.50	0.002
758.69	0.002
758.87	0.002
759.05	0.003
759.23	0.002
759.41	0.002
759.59	0.003
759.77	0.002
759.95	0.002
760.13	0.002
760.32	0.002
760.50	0.002
760.68	0.002
760.86	0.003
761.04	0.003
761.22	0.003
761.40	0.003
761.58	0.003
761.76	0.003
761.95	0.003
762.13	0.003
762.31	0.003
762.49	0.003
762.67	0.003
762.85	0.003
763.03	0.003
763.21	0.003
763.39	0.003
763.57	0.003
763.75	0.003
763.94	0.002
764.12	0.002
764.30	0.002
764.48	0.002
764.66	0.002
764.84	0.001
765.02	0.002
765.20	0.001
765.38	0.001
765.56	0.001
765.74	0.001
765.92	0.002
766.10	0.002
766.28	0.002
766.46	0.002
766.65	0.001
766.83	0.001
767.01	0.001
767.19	0.001
767.37	0.000
767.55	0.001
767.73	0.001
767.91	0.001
768.09	0.001
768.27	0.000
768.45	0.001
768.63	0.001
768.81	0.001
768.99	0.001
769.17	0.001
769.35	0.002
769.53	0.001
769.71	0.001
769.89	0.001
770.07	0.001
770.25	0.001
770.43	0.001
770.61	0.001
770.79	0.001
770.97	0.001
771.15	0.001
771.33	0.001
771.51	0.001
771.69	0.001
771.87	0.000
772.05	0.001
772.24	0.001
772.42	0.000
772.60	0.001
772.78	0.001
772.96	0.002
773.14	0.002
773.32	0.002
773.49	0.002
773.67	0.002
773.85	0.002
774.03	0.002
774.21	0.002
774.39	0.002
774.57	0.002
774.75	0.001
774.93	0.001
775.11	0.002
775.29	0.002
775.47	0.002
775.65	0.002
775.83	0.002
776.01	0.001
776.19	0.001
776.37	0.001
776.55	0.001
776.73	0.001
776.91	0.000
777.09	0.000
777.27	-0.000
777.45	-0.000
777.63	0.000
777.81	0.001
777.99	0.001
778.17	0.001
778.35	0.002
778.53	0.002
778.71	0.002
778.89	0.002
779.07	0.001
779.24	0.001
779.42	0.001
779.60	0.001
779.78	0.000
779.96	-0.000
780.14	-0.001
780.32	-0.001
780.50	-0.001
780.68	-0.002
780.86	-0.001
781.04	-0.001
781.22	-0.001
781.40	-0.000
781.58	-0.000
781.75	0.000
781.93	0.001
782.11	0.002
782.29	0.002
782.47	0.002
782.65	0.002
782.83	0.002
783.01	0.002
783.19	0.002
783.37	0.002
783.55	0.001
783.72	0.001
783.90	0.001
784.08	0.001
784.26	0.000
784.44	0.000
784.62	0.001
784.80	0.001
784.98	0.001
785.16	0.001
785.33	0.001
785.51	0.002
785.69	0.002
785.87	0.002
786.05	0.002
786.23	0.003
786.41	0.003
786.59	0.003
786.77	0.003
786.94	0.003
787.12	0.003
787.30	0.003
787.48	0.003
787.66	0.003
787.84	0.002
788.02	0.002
788.19	0.002
788.37	0.002
788.55	0.002
788.73	0.001
788.91	0.002
789.09	0.001
789.27	0.001
789.44	0.001
789.62	0.001
789.80	0.001
789.98	0.001
790.16	0.001
790.34	0.001
790.51	0.001
790.69	0.001
790.87	0.001
791.05	0.001
791.23	0.001
791.41	0.001
791.58	0.001
791.76	0.001
791.94	0.002
792.12	0.002
792.30	0.002
792.48	0.002
792.65	0.002
792.83	0.002
793.01	0.002
793.19	0.002
793.37	0.001
793.54	0.002
793.72	0.001
793.90	0.001
794.08	0.001
794.26	0.001
794.43	0.001
794.61	0.002
794.79	0.001
794.97	0.001
795.15	0.001
795.32	0.001
795.50	0.001
795.68	0.001
795.86	0.000
796.04	0.000
796.21	0.000
796.39	0.000
796.57	-0.000
796.75	-0.000
796.92	-0.000
797.10	0.000
797.28	0.000
797.46	0.000
797.64	-0.000
797.81	-0.000
797.99	-0.000
798.17	-0.000
798.35	0.000
798.52	0.001
798.70	0.001
798.88	0.001
799.06	0.001
799.23	0.001
799.41	0.001
799.59	0.001
799.77	0.001
799.94	0.001
800.12	0.001
800.30	0.000
800.48	0.001
800.65	0.000
800.83	0.000
801.01	0.000
801.19	0.000
801.36	0.000
801.54	0.000
801.72	0.001
801.90	0.000
802.07	0.000
802.25	0.001
802.43	0.001
802.60	0.001
802.78	0.001
802.96	0.001
803.14	0.001
803.31	0.001
803.49	0.001
803.67	0.001
803.84	0.001
804.02	0.001
804.20	0.001
804.38	0.000
804.55	-0.000
804.73	-0.000
804.91	-0.000
805.08	-0.000
805.26	0.000
805.44	-0.000
805.61	0.000
805.79	0.001
805.97	0.000
806.15	0.000
806.32	0.001
806.50	0.001
806.68	0.001
806.85	0.001
807.03	0.001
807.21	0.001
807.38	0.001
807.56	0.001
807.74	0.000
807.91	0.001
808.09	0.000
808.27	0.000
808.44	0.000
808.62	-0.000
808.80	0.000
808.97	0.001
809.15	0.001
809.33	0.001
809.50	0.000
809.68	0.000
809.86	0.000
810.03	0.001
810.21	0.001
810.39	0.001
810.56	0.001
810.74	0.001
810.91	0.001
811.09	0.000
811.27	0.000
811.44	0.001
811.62	0.001
811.80	0.001
811.97	0.001
812.15	0.001
812.33	0.001
812.50	0.001
812.68	0.001
812.85	0.002
813.03	0.002
813.21	0.002
813.38	0.002
813.56	0.002
813.74	0.001
813.91	0.001
814.09	0.001
814.26	0.001
814.44	0.001
814.62	0.001
814.79	0.001
814.97	0.001
815.14	0.001
815.32	0.001
815.50	0.001
815.67	0.001
815.85	0.001
816.02	0.001
816.20	0.001
816.38	0.002
816.55	0.001
816.73	0.002
816.90	0.002
817.08	0.001
817.26	0.002
817.43	0.001
817.61	0.002
817.78	0.002
817.96	0.002
818.13	0.002
818.31	0.002
818.49	0.002
818.66	0.002
818.84	0.002
819.01	0.002
819.19	0.002
819.36	0.002
819.54	0.001
819.71	0.001
819.89	0.001
820.07	0.001
820.24	0.000
820.42	0.001
820.59	0.001
820.77	0.001
820.94	0.001
821.12	0.001
821.29	0.000
821.47	0.001
821.64	0.001
821.82	0.001
822.00	0.001
822.17	0.001
822.35	0.001
822.52	0.001
822.70	0.000
822.87	0.000
823.05	-0.000
823.22	0.000
823.40	0.000
823.57	0.000
823.75	0.000
823.92	0.000
824.10	0.000
824.27	-0.000
824.45	-0.000
824.62	0.000
824.80	0.000
824.97	0.000
825.15	-0.000
825.32	-0.000
825.50	-0.000
825.67	-0.001
825.85	-0.001
826.02	0.000
826.20	0.001
826.37	0.001
826.55	0.001
826.72	0.001
826.90	0.001
827.07	0.002
827.25	0.002
827.42	0.001
827.60	0.002
827.77	0.002
827.95	0.001
828.12	0.001
828.30	-0.000
828.47	-0.001
828.65	-0.002
828.82	-0.001
829.00	-0.001
829.17	-0.001
829.34	-0.000
829.52	-0.001
829.69	-0.000
829.87	-0.001
830.04	-0.000
830.22	0.000
830.39	0.000
830.57	0.002
830.74	0.001
830.92	0.000
831.09	-0.000
831.26	-0.000
831.44	0.001
831.61	0.002
831.79	0.003
831.96	0.003
832.14	0.003
832.31	0.003
832.49	0.003
832.66	0.003
832.83	0.004
833.01	0.005
833.18	0.005
833.36	0.003
833.53	0.002
833.70	0.001
833.88	0.001
834.05	0.000
834.23	0.001
834.40	0.001
834.58	0.002
834.75	0.002
834.92	0.002
835.10	0.001
835.27	0.001
835.45	0.001
835.62	0.002
835.79	0.003
835.97	0.003
836.14	0.002
836.32	0.002
836.49	0.001
836.66	0.000
836.84	0.000
837.01	0.001
837.18	0.002
837.36	0.003
837.53	0.003
837.71	0.002
837.88	0.002
838.05	0.000
838.23	0.002
838.40	0.003
838.58	0.003
838.75	0.003
838.92	0.002
839.10	0.001
839.27	0.001
839.44	0.002
839.62	0.003
839.79	0.003
839.96	0.008
840.14	0.007
840.31	0.006
840.48	0.006
840.66	0.008
840.83	0.008
841.01	0.010
841.18	0.009
841.35	0.006
841.53	0.004
841.70	0.003
841.87	0.001
842.05	-0.002
842.22	-0.001
842.39	-0.000
842.57	-0.001
842.74	-0.000
842.91	-0.001
843.09	0.000
843.26	0.002
843.43	0.004
843.60	0.003
843.78	0.003
843.95	0.005
844.12	0.004
844.30	0.004
844.47	0.004
844.64	0.005
844.82	0.004
844.99	0.003
845.16	0.003
845.34	0.004
845.51	0.006
845.68	0.007
845.85	0.008
846.03	0.008
846.20	0.009
846.37	0.009
846.55	0.007
846.72	0.008
846.89	0.008
847.06	0.008
847.24	0.008
847.41	0.008
847.58	0.007
847.76	0.008
847.93	0.008
848.10	0.007
848.27	0.007
848.45	0.009
848.62	0.009
848.79	0.006
848.97	0.008
849.14	0.006
849.31	0.006
849.48	0.007
849.66	0.005
849.83	0.004
850.00	0.003
850.17	0.001
850.35	-0.001
850.52	-0.001
850.69	0.001
850.86	-0.000
851.04	0.001
851.21	0.001
851.38	-0.001
851.55	-0.002
851.72	-0.000
851.90	0.002
852.07	0.004
852.24	0.002
852.41	0.001
852.59	0.001
852.76	-0.000
852.93	-0.002
853.10	-0.002
853.28	-0.002
853.45	-0.001
853.62	-0.003
853.79	-0.003
853.96	-0.006
854.14	-0.003
854.31	-0.002
854.48	-0.000
854.65	0.002
854.82	0.005
855.00	0.006
855.17	0.007
855.34	0.006
855.51	0.007
855.68	0.008
855.86	0.010
856.03	0.007
856.20	0.004
856.37	0.002
856.54	0.001
856.72	-0.002
856.89	-0.006
857.06	-0.006
857.23	-0.006
857.40	-0.007
857.57	-0.010
857.75	-0.011
857.92	-0.008
858.09	-0.007
858.26	-0.006
858.43	-0.007
858.60	-0.003
858.78	0.001
858.95	0.000
859.12	0.003
859.29	0.003
859.46	0.005
859.63	0.008
859.81	0.008
859.98	0.008
860.15	0.006
860.32	0.011
860.49	0.008
860.66	0.009
860.83	0.009
861.01	0.007
861.18	0.007
861.35	0.009
861.52	0.005
861.69	0.005
861.86	0.003
862.03	0.008
862.21	0.008
862.38	0.009
862.55	0.008
862.72	0.010
862.89	0.013
863.06	0.014
863.23	0.014
863.40	0.014
863.58	0.010
863.75	0.011
863.92	0.009
864.09	0.005
864.26	0.005
864.43	0.003
864.60	0.001
864.77	-0.004
864.94	-0.003
865.11	-0.006
865.29	-0.005
865.46	-0.005
865.63	-0.002
865.80	-0.003
865.97	-0.003
866.14	-0.003
866.31	-0.005
866.48	-0.006
866.65	-0.001
866.82	-0.002
866.99	0.000
867.16	-0.002
867.34	-0.001
867.51	-0.003
867.68	-0.000
867.85	-0.001
868.02	-0.004
868.19	-0.002
868.36	-0.002
868.53	-0.007
868.70	-0.009
868.87	-0.014
869.04	-0.008
869.21	-0.008
869.38	-0.008
869.55	-0.015
869.72	-0.015
869.89	-0.011
870.06	-0.013
870.24	-0.006
870.41	-0.009
870.58	-0.009
870.75	-0.002
870.92	-0.005
871.09	-0.005
871.26	-0.006
871.43	0.004
871.60	0.009
871.77	0.006
871.94	0.013
872.11	0.009
872.28	0.010
872.45	0.013
872.62	0.010
872.79	0.009
872.96	0.010
873.13	0.006
873.30	-0.001
873.47	-0.003
873.64	-0.002
873.81	-0.002
873.98	0.001
874.15	0.008
874.32	0.006
874.49	0.009
874.66	0.011
874.83	0.015
875.00	0.017
875.17	0.021
875.34	0.020
875.51	0.021
875.68	0.016
875.85	0.010
876.02	0.007
876.19	0.010
876.36	0.006
876.53	0.005
876.70	0.002
876.87	0.005
877.04	0.002
877.21	0.003
877.38	0.004
877.55	0.008
877.72	0.008
877.89	0.006
878.06	-0.001
878.23	-0.003
878.39	0.000
878.56	0.006
878.73	0.003
878.90	0.003
879.07	0.001
879.24	-0.004
879.41	-0.004
879.58	-0.003
879.75	-0.001
879.92	0.003
880.09	-0.000
880.26	-0.000
880.43	-0.010
880.60	-0.006
880.77	0.001
880.94	0.004
881.11	0.010
881.27	0.007
881.44	0.003
881.61	0.005
881.78	0.006
881.95	0.012
882.12	0.009
882.29	0.012
882.46	0.009
882.63	0.007
882.80	0.004
882.97	0.004
883.14	-0.001
883.30	0.003
883.47	-0.004
883.64	-0.004
883.81	-0.003
883.98	0.000
884.15	-0.008
884.32	-0.010
884.49	-0.006
884.66	-0.010
884.82	-0.008
884.99	-0.004
885.16	-0.007
885.33	-0.005
885.50	-0.002
885.67	-0.001
885.84	-0.004
886.01	-0.003
886.17	0.001
886.34	-0.004
886.51	0.007
886.68	-0.001
886.85	0.007
887.02	0.019
887.19	0.018
887.36	0.012
887.52	0.007
887.69	0.017
887.86	0.023
888.03	0.026
888.20	0.026
888.37	0.017
888.54	0.018
888.70	0.005
888.87	0.007
889.04	0.009
889.21	0.012
889.38	0.019
889.55	0.013
889.71	0.161
889.88	-0.030
890.05	-0.022
890.22	0.063
890.39	0.021
>>>>>End Processed Spectral Data<<<<<
