SpectraSuite Data File
++++++++++++++++++++++++++++++++++++
Date: Mon Jun 15 09:15:11 PDT 2015
User: introlabs
Dark Spectrum Present: Yes
Reference Spectrum Present: Yes
Number of Sampled Component Spectra: 1
Spectrometers: USB4H08886
Integration Time (usec): 44366 (USB4H08886)
Spectra Averaged: 20 (USB4H08886)
Boxcar Smoothing: 5 (USB4H08886)
Correct for Electrical Dark: Yes (USB4H08886)
Strobe/Lamp Enabled: No (USB4H08886)
Correct for Detector Non-linearity: Yes (USB4H08886)
Correct for Stray Light: Yes (USB4H08886)
Number of Pixels in Processed Spectrum: 3648
>>>>>Begin Processed Spectral Data<<<<<
178.14	-0.000
178.36	-0.000
178.57	-0.000
178.79	0.312
179.01	-0.813
179.22	-0.000
179.44	-0.000
179.65	-0.614
179.87	-0.352
180.08	-0.143
180.30	-0.184
180.52	-0.236
180.73	-0.200
180.95	-0.048
181.16	-0.002
181.38	-0.011
181.59	0.001
181.81	-0.008
182.03	0.010
182.24	0.025
182.46	0.025
182.67	0.019
182.89	0.017
183.10	0.026
183.32	0.020
183.54	0.013
183.75	0.019
183.97	0.026
184.18	0.023
184.40	0.020
184.61	0.018
184.83	0.015
185.04	0.020
185.26	0.020
185.48	0.010
185.69	0.009
185.91	0.011
186.12	0.004
186.34	0.003
186.55	-0.004
186.77	0.001
186.98	0.001
187.20	-0.001
187.42	0.004
187.63	0.004
187.85	0.002
188.06	0.008
188.28	0.005
188.49	0.008
188.71	0.009
188.92	0.009
189.14	-0.006
189.36	-0.001
189.57	0.004
189.79	-0.012
190.00	-0.012
190.22	-0.013
190.43	-0.016
190.65	-0.016
190.86	-0.009
191.08	-0.011
191.29	-0.006
191.51	0.004
191.72	0.001
191.94	0.000
192.16	0.008
192.37	0.006
192.59	0.008
192.80	0.011
193.02	0.020
193.23	0.018
193.45	0.012
193.66	0.013
193.88	0.010
194.09	0.007
194.31	-0.002
194.52	-0.008
194.74	-0.007
194.95	-0.012
195.17	-0.019
195.38	-0.034
195.60	-0.039
195.81	-0.030
196.03	-0.029
196.25	-0.022
196.46	-0.024
196.68	-0.019
196.89	-0.009
197.11	-0.005
197.32	-0.004
197.54	-0.000
197.75	0.024
197.97	0.023
198.18	0.017
198.40	0.019
198.61	0.016
198.83	0.006
199.04	0.011
199.26	0.005
199.47	0.001
199.69	0.007
199.90	0.014
200.12	0.004
200.33	0.007
200.55	0.012
200.76	0.005
200.98	-0.001
201.19	0.004
201.41	-0.006
201.62	-0.002
201.84	0.000
202.05	-0.004
202.27	-0.010
202.48	-0.017
202.70	-0.016
202.91	-0.014
203.13	-0.016
203.34	-0.021
203.56	-0.013
203.77	-0.010
203.99	-0.015
204.20	-0.021
204.42	-0.017
204.63	-0.012
204.85	-0.010
205.06	-0.017
205.28	-0.019
205.49	-0.012
205.71	0.000
205.92	0.002
206.14	0.001
206.35	0.011
206.56	0.019
206.78	0.019
206.99	0.018
207.21	0.025
207.42	0.031
207.64	0.031
207.85	0.031
208.07	0.031
208.28	0.033
208.50	0.036
208.71	0.034
208.93	0.032
209.14	0.029
209.36	0.029
209.57	0.029
209.79	0.029
210.00	0.029
210.22	0.030
210.43	0.026
210.64	0.021
210.86	0.018
211.07	0.013
211.29	0.012
211.50	0.011
211.72	-0.003
211.93	-0.003
212.15	-0.005
212.36	-0.012
212.58	-0.017
212.79	-0.019
213.01	-0.022
213.22	-0.020
213.43	-0.019
213.65	-0.020
213.86	-0.019
214.08	-0.008
214.29	-0.011
214.51	-0.015
214.72	-0.013
214.94	-0.013
215.15	-0.005
215.36	-0.002
215.58	-0.003
215.79	-0.002
216.01	0.002
216.22	0.005
216.44	0.000
216.65	0.001
216.87	0.008
217.08	0.008
217.29	0.020
217.51	0.012
217.72	0.012
217.94	0.017
218.15	0.018
218.37	0.013
218.58	0.007
218.80	0.009
219.01	0.004
219.22	0.001
219.44	0.002
219.65	-0.006
219.87	-0.004
220.08	-0.007
220.30	-0.013
220.51	-0.016
220.72	-0.017
220.94	-0.020
221.15	-0.022
221.37	-0.022
221.58	-0.020
221.79	-0.017
222.01	-0.026
222.22	-0.027
222.44	-0.030
222.65	-0.029
222.87	-0.026
223.08	-0.022
223.29	-0.021
223.51	-0.021
223.72	-0.019
223.94	-0.026
224.15	-0.030
224.36	-0.024
224.58	-0.029
224.79	-0.024
225.01	-0.027
225.22	-0.028
225.44	-0.031
225.65	-0.026
225.86	-0.026
226.08	-0.024
226.29	-0.025
226.51	-0.020
226.72	-0.021
226.93	-0.015
227.15	-0.023
227.36	-0.023
227.58	-0.026
227.79	-0.026
228.00	-0.031
228.22	-0.035
228.43	-0.040
228.65	-0.040
228.86	-0.044
229.07	-0.043
229.29	-0.045
229.50	-0.044
229.72	-0.043
229.93	-0.044
230.14	-0.043
230.36	-0.044
230.57	-0.043
230.78	-0.044
231.00	-0.047
231.21	-0.049
231.43	-0.052
231.64	-0.054
231.85	-0.053
232.07	-0.054
232.28	-0.053
232.50	-0.056
232.71	-0.058
232.92	-0.059
233.14	-0.060
233.35	-0.057
233.56	-0.058
233.78	-0.059
233.99	-0.059
234.21	-0.059
234.42	-0.059
234.63	-0.061
234.85	-0.061
235.06	-0.060
235.27	-0.060
235.49	-0.058
235.70	-0.059
235.91	-0.060
236.13	-0.059
236.34	-0.060
236.56	-0.061
236.77	-0.061
236.98	-0.060
237.20	-0.060
237.41	-0.059
237.62	-0.058
237.84	-0.059
238.05	-0.059
238.26	-0.059
238.48	-0.059
238.69	-0.056
238.91	-0.056
239.12	-0.055
239.33	-0.055
239.55	-0.054
239.76	-0.053
239.97	-0.052
240.19	-0.051
240.40	-0.050
240.61	-0.049
240.83	-0.049
241.04	-0.049
241.25	-0.049
241.47	-0.047
241.68	-0.047
241.89	-0.046
242.11	-0.045
242.32	-0.045
242.53	-0.045
242.75	-0.043
242.96	-0.042
243.17	-0.041
243.39	-0.041
243.60	-0.041
243.81	-0.041
244.03	-0.041
244.24	-0.041
244.45	-0.040
244.67	-0.039
244.88	-0.037
245.09	-0.037
245.31	-0.037
245.52	-0.036
245.73	-0.035
245.95	-0.034
246.16	-0.033
246.37	-0.033
246.59	-0.032
246.80	-0.033
247.01	-0.033
247.23	-0.033
247.44	-0.033
247.65	-0.033
247.87	-0.032
248.08	-0.032
248.29	-0.032
248.51	-0.031
248.72	-0.031
248.93	-0.030
249.15	-0.030
249.36	-0.029
249.57	-0.029
249.78	-0.029
250.00	-0.028
250.21	-0.028
250.42	-0.028
250.64	-0.027
250.85	-0.027
251.06	-0.027
251.28	-0.027
251.49	-0.026
251.70	-0.026
251.92	-0.025
252.13	-0.025
252.34	-0.024
252.55	-0.024
252.77	-0.024
252.98	-0.024
253.19	-0.024
253.41	-0.023
253.62	-0.023
253.83	-0.022
254.05	-0.022
254.26	-0.022
254.47	-0.022
254.68	-0.023
254.90	-0.023
255.11	-0.022
255.32	-0.022
255.54	-0.022
255.75	-0.022
255.96	-0.022
256.17	-0.022
256.39	-0.022
256.60	-0.022
256.81	-0.022
257.03	-0.022
257.24	-0.022
257.45	-0.022
257.66	-0.022
257.88	-0.022
258.09	-0.022
258.30	-0.022
258.51	-0.022
258.73	-0.022
258.94	-0.022
259.15	-0.022
259.37	-0.023
259.58	-0.023
259.79	-0.023
260.00	-0.023
260.22	-0.022
260.43	-0.022
260.64	-0.023
260.85	-0.023
261.07	-0.023
261.28	-0.023
261.49	-0.023
261.71	-0.023
261.92	-0.022
262.13	-0.023
262.34	-0.023
262.56	-0.023
262.77	-0.023
262.98	-0.023
263.19	-0.023
263.41	-0.024
263.62	-0.024
263.83	-0.024
264.04	-0.025
264.26	-0.025
264.47	-0.025
264.68	-0.025
264.89	-0.025
265.11	-0.026
265.32	-0.026
265.53	-0.026
265.74	-0.026
265.96	-0.026
266.17	-0.025
266.38	-0.026
266.59	-0.026
266.81	-0.026
267.02	-0.026
267.23	-0.026
267.44	-0.027
267.65	-0.027
267.87	-0.028
268.08	-0.028
268.29	-0.028
268.50	-0.028
268.72	-0.028
268.93	-0.029
269.14	-0.029
269.35	-0.029
269.57	-0.029
269.78	-0.029
269.99	-0.030
270.20	-0.030
270.41	-0.030
270.63	-0.030
270.84	-0.031
271.05	-0.031
271.26	-0.031
271.48	-0.031
271.69	-0.032
271.90	-0.032
272.11	-0.032
272.32	-0.033
272.54	-0.033
272.75	-0.033
272.96	-0.033
273.17	-0.033
273.39	-0.033
273.60	-0.033
273.81	-0.033
274.02	-0.033
274.23	-0.033
274.45	-0.033
274.66	-0.033
274.87	-0.033
275.08	-0.033
275.29	-0.033
275.51	-0.034
275.72	-0.034
275.93	-0.034
276.14	-0.033
276.35	-0.033
276.57	-0.033
276.78	-0.033
276.99	-0.033
277.20	-0.033
277.41	-0.033
277.63	-0.033
277.84	-0.033
278.05	-0.033
278.26	-0.032
278.47	-0.033
278.69	-0.033
278.90	-0.032
279.11	-0.032
279.32	-0.032
279.53	-0.032
279.74	-0.031
279.96	-0.031
280.17	-0.031
280.38	-0.031
280.59	-0.031
280.80	-0.031
281.02	-0.030
281.23	-0.030
281.44	-0.030
281.65	-0.030
281.86	-0.030
282.07	-0.029
282.29	-0.029
282.50	-0.028
282.71	-0.028
282.92	-0.028
283.13	-0.028
283.35	-0.027
283.56	-0.027
283.77	-0.027
283.98	-0.027
284.19	-0.026
284.40	-0.026
284.62	-0.026
284.83	-0.026
285.04	-0.026
285.25	-0.025
285.46	-0.024
285.67	-0.024
285.88	-0.024
286.10	-0.023
286.31	-0.022
286.52	-0.021
286.73	-0.021
286.94	-0.020
287.15	-0.019
287.37	-0.019
287.58	-0.018
287.79	-0.017
288.00	-0.017
288.21	-0.016
288.42	-0.015
288.63	-0.015
288.85	-0.014
289.06	-0.014
289.27	-0.013
289.48	-0.013
289.69	-0.012
289.90	-0.012
290.11	-0.011
290.33	-0.011
290.54	-0.010
290.75	-0.010
290.96	-0.009
291.17	-0.009
291.38	-0.009
291.59	-0.008
291.81	-0.008
292.02	-0.008
292.23	-0.008
292.44	-0.007
292.65	-0.007
292.86	-0.007
293.07	-0.007
293.28	-0.006
293.50	-0.006
293.71	-0.006
293.92	-0.006
294.13	-0.006
294.34	-0.005
294.55	-0.005
294.76	-0.005
294.97	-0.005
295.19	-0.005
295.40	-0.005
295.61	-0.005
295.82	-0.005
296.03	-0.005
296.24	-0.004
296.45	-0.004
296.66	-0.004
296.87	-0.004
297.09	-0.004
297.30	-0.004
297.51	-0.004
297.72	-0.004
297.93	-0.004
298.14	-0.003
298.35	-0.003
298.56	-0.003
298.77	-0.003
298.99	-0.003
299.20	-0.003
299.41	-0.003
299.62	-0.003
299.83	-0.003
300.04	-0.003
300.25	-0.003
300.46	-0.003
300.67	-0.002
300.88	-0.002
301.10	-0.002
301.31	-0.002
301.52	-0.002
301.73	-0.002
301.94	-0.002
302.15	-0.002
302.36	-0.002
302.57	-0.002
302.78	-0.002
302.99	-0.002
303.20	-0.003
303.41	-0.003
303.63	-0.002
303.84	-0.002
304.05	-0.002
304.26	-0.002
304.47	-0.002
304.68	-0.002
304.89	-0.002
305.10	-0.002
305.31	-0.002
305.52	-0.002
305.73	-0.002
305.94	-0.002
306.15	-0.002
306.37	-0.001
306.58	-0.001
306.79	-0.001
307.00	-0.001
307.21	-0.001
307.42	-0.001
307.63	-0.001
307.84	-0.001
308.05	-0.001
308.26	-0.001
308.47	-0.001
308.68	-0.001
308.89	-0.001
309.10	-0.001
309.31	-0.001
309.52	-0.001
309.73	-0.001
309.95	-0.001
310.16	-0.001
310.37	-0.001
310.58	-0.001
310.79	-0.001
311.00	-0.001
311.21	-0.001
311.42	-0.001
311.63	-0.000
311.84	-0.001
312.05	-0.001
312.26	-0.000
312.47	-0.000
312.68	-0.000
312.89	-0.000
313.10	0.000
313.31	0.000
313.52	0.000
313.73	0.000
313.94	0.000
314.15	0.000
314.36	0.000
314.57	0.001
314.78	0.001
314.99	0.001
315.21	0.001
315.42	0.001
315.63	0.001
315.84	0.001
316.05	0.001
316.26	0.001
316.47	0.001
316.68	0.001
316.89	0.001
317.10	0.001
317.31	0.001
317.52	0.001
317.73	0.001
317.94	0.001
318.15	0.001
318.36	0.001
318.57	0.001
318.78	0.001
318.99	0.001
319.20	0.001
319.41	0.001
319.62	0.001
319.83	0.001
320.04	0.001
320.25	0.001
320.46	0.001
320.67	0.001
320.88	0.001
321.09	0.001
321.30	0.001
321.51	0.001
321.72	0.001
321.93	0.001
322.14	0.001
322.35	0.001
322.56	0.001
322.77	0.001
322.98	0.001
323.19	0.001
323.40	0.001
323.61	0.001
323.82	0.001
324.03	0.001
324.24	0.002
324.45	0.002
324.66	0.001
324.87	0.002
325.08	0.002
325.29	0.002
325.50	0.002
325.71	0.002
325.92	0.002
326.13	0.002
326.34	0.002
326.55	0.002
326.76	0.002
326.97	0.002
327.18	0.002
327.39	0.002
327.60	0.002
327.80	0.002
328.01	0.002
328.22	0.002
328.43	0.002
328.64	0.002
328.85	0.002
329.06	0.002
329.27	0.002
329.48	0.002
329.69	0.002
329.90	0.002
330.11	0.002
330.32	0.002
330.53	0.002
330.74	0.002
330.95	0.002
331.16	0.002
331.37	0.002
331.58	0.002
331.79	0.002
332.00	0.002
332.21	0.002
332.42	0.002
332.63	0.002
332.83	0.002
333.04	0.002
333.25	0.002
333.46	0.002
333.67	0.002
333.88	0.002
334.09	0.002
334.30	0.002
334.51	0.002
334.72	0.002
334.93	0.002
335.14	0.002
335.35	0.002
335.56	0.002
335.77	0.002
335.98	0.002
336.18	0.001
336.39	0.002
336.60	0.002
336.81	0.002
337.02	0.002
337.23	0.002
337.44	0.002
337.65	0.002
337.86	0.002
338.07	0.002
338.28	0.002
338.49	0.002
338.70	0.002
338.91	0.001
339.11	0.001
339.32	0.001
339.53	0.001
339.74	0.001
339.95	0.001
340.16	0.001
340.37	0.001
340.58	0.001
340.79	0.001
341.00	0.001
341.21	0.001
341.41	0.001
341.62	0.000
341.83	0.000
342.04	0.000
342.25	0.000
342.46	0.000
342.67	0.000
342.88	0.000
343.09	0.000
343.30	0.000
343.50	0.000
343.71	0.000
343.92	0.001
344.13	0.001
344.34	0.001
344.55	0.000
344.76	0.000
344.97	0.000
345.18	0.000
345.38	-0.000
345.59	-0.000
345.80	-0.000
346.01	-0.000
346.22	-0.000
346.43	-0.000
346.64	-0.000
346.85	-0.000
347.06	-0.000
347.26	-0.000
347.47	-0.000
347.68	-0.000
347.89	-0.000
348.10	-0.000
348.31	-0.001
348.52	-0.001
348.73	-0.001
348.93	-0.001
349.14	-0.001
349.35	-0.001
349.56	-0.001
349.77	-0.001
349.98	-0.001
350.19	-0.001
350.39	-0.001
350.60	-0.001
350.81	-0.001
351.02	-0.001
351.23	-0.001
351.44	-0.001
351.65	-0.001
351.86	-0.001
352.06	-0.001
352.27	-0.001
352.48	-0.001
352.69	-0.001
352.90	-0.001
353.11	-0.001
353.31	-0.000
353.52	-0.000
353.73	-0.000
353.94	-0.000
354.15	-0.001
354.36	-0.000
354.57	-0.000
354.77	-0.000
354.98	-0.001
355.19	-0.001
355.40	-0.000
355.61	-0.000
355.82	-0.000
356.02	-0.000
356.23	-0.000
356.44	-0.000
356.65	-0.000
356.86	-0.000
357.07	-0.000
357.27	-0.000
357.48	-0.000
357.69	-0.001
357.90	-0.001
358.11	-0.001
358.32	-0.001
358.52	-0.001
358.73	-0.001
358.94	-0.001
359.15	-0.001
359.36	-0.001
359.56	-0.001
359.77	-0.001
359.98	-0.001
360.19	-0.001
360.40	-0.001
360.61	-0.001
360.81	-0.001
361.02	-0.001
361.23	-0.001
361.44	-0.001
361.65	-0.001
361.85	-0.001
362.06	-0.001
362.27	-0.001
362.48	-0.001
362.69	-0.001
362.89	-0.001
363.10	-0.001
363.31	-0.001
363.52	-0.001
363.73	-0.001
363.93	-0.001
364.14	-0.001
364.35	-0.001
364.56	-0.001
364.77	-0.001
364.97	-0.001
365.18	-0.001
365.39	-0.001
365.60	-0.001
365.81	-0.001
366.01	-0.001
366.22	-0.001
366.43	-0.001
366.64	-0.001
366.84	-0.001
367.05	-0.001
367.26	-0.001
367.47	-0.001
367.68	-0.001
367.88	-0.001
368.09	-0.001
368.30	-0.001
368.51	-0.001
368.71	-0.001
368.92	-0.001
369.13	-0.001
369.34	-0.001
369.55	-0.001
369.75	-0.001
369.96	-0.001
370.17	-0.001
370.38	-0.001
370.58	-0.001
370.79	-0.001
371.00	-0.001
371.21	-0.001
371.41	-0.001
371.62	-0.001
371.83	-0.001
372.04	-0.001
372.24	-0.001
372.45	-0.001
372.66	-0.001
372.87	-0.001
373.07	-0.001
373.28	-0.001
373.49	-0.001
373.70	-0.001
373.90	-0.001
374.11	-0.001
374.32	-0.001
374.53	-0.001
374.73	-0.001
374.94	-0.001
375.15	-0.001
375.36	-0.001
375.56	-0.001
375.77	-0.001
375.98	-0.001
376.19	-0.001
376.39	-0.001
376.60	-0.001
376.81	-0.001
377.02	-0.001
377.22	-0.001
377.43	-0.001
377.64	-0.001
377.84	-0.001
378.05	-0.001
378.26	-0.001
378.47	-0.001
378.67	-0.001
378.88	-0.001
379.09	-0.001
379.30	-0.001
379.50	-0.001
379.71	-0.001
379.92	-0.001
380.12	-0.001
380.33	-0.001
380.54	-0.001
380.75	-0.001
380.95	-0.001
381.16	-0.001
381.37	-0.001
381.57	-0.001
381.78	-0.001
381.99	-0.001
382.20	-0.001
382.40	-0.001
382.61	-0.001
382.82	-0.001
383.02	-0.001
383.23	-0.001
383.44	-0.001
383.64	-0.001
383.85	-0.001
384.06	-0.001
384.27	-0.001
384.47	-0.001
384.68	-0.001
384.89	-0.001
385.09	-0.001
385.30	-0.001
385.51	-0.001
385.71	-0.001
385.92	-0.001
386.13	-0.001
386.33	-0.001
386.54	-0.001
386.75	-0.001
386.95	-0.001
387.16	-0.001
387.37	-0.001
387.58	-0.001
387.78	-0.001
387.99	-0.001
388.20	-0.001
388.40	-0.001
388.61	-0.001
388.82	-0.001
389.02	-0.001
389.23	-0.002
389.44	-0.002
389.64	-0.001
389.85	-0.001
390.06	-0.002
390.26	-0.002
390.47	-0.002
390.68	-0.002
390.88	-0.002
391.09	-0.002
391.30	-0.001
391.50	-0.001
391.71	-0.002
391.92	-0.002
392.12	-0.002
392.33	-0.002
392.53	-0.001
392.74	-0.001
392.95	-0.001
393.15	-0.001
393.36	-0.001
393.57	-0.001
393.77	-0.001
393.98	-0.001
394.19	-0.001
394.39	-0.001
394.60	-0.001
394.81	-0.001
395.01	-0.001
395.22	-0.001
395.43	-0.001
395.63	-0.001
395.84	-0.001
396.04	-0.001
396.25	-0.001
396.46	-0.002
396.66	-0.001
396.87	-0.001
397.08	-0.001
397.28	-0.001
397.49	-0.001
397.69	-0.001
397.90	-0.001
398.11	-0.001
398.31	-0.001
398.52	-0.001
398.73	-0.001
398.93	-0.001
399.14	-0.001
399.34	-0.002
399.55	-0.002
399.76	-0.002
399.96	-0.001
400.17	-0.001
400.37	-0.002
400.58	-0.002
400.79	-0.002
400.99	-0.002
401.20	-0.002
401.41	-0.002
401.61	-0.001
401.82	-0.001
402.02	-0.001
402.23	-0.001
402.44	-0.001
402.64	-0.001
402.85	-0.001
403.05	-0.001
403.26	-0.001
403.47	-0.001
403.67	-0.001
403.88	-0.001
404.08	-0.001
404.29	-0.002
404.50	-0.002
404.70	-0.002
404.91	-0.002
405.11	-0.002
405.32	-0.002
405.52	-0.002
405.73	-0.002
405.94	-0.002
406.14	-0.002
406.35	-0.002
406.55	-0.002
406.76	-0.002
406.97	-0.002
407.17	-0.002
407.38	-0.002
407.58	-0.002
407.79	-0.002
407.99	-0.002
408.20	-0.002
408.41	-0.002
408.61	-0.002
408.82	-0.002
409.02	-0.002
409.23	-0.002
409.43	-0.001
409.64	-0.002
409.84	-0.001
410.05	-0.001
410.26	-0.002
410.46	-0.002
410.67	-0.002
410.87	-0.002
411.08	-0.002
411.28	-0.002
411.49	-0.002
411.69	-0.002
411.90	-0.002
412.11	-0.002
412.31	-0.002
412.52	-0.002
412.72	-0.002
412.93	-0.002
413.13	-0.002
413.34	-0.002
413.54	-0.002
413.75	-0.002
413.95	-0.002
414.16	-0.002
414.37	-0.002
414.57	-0.002
414.78	-0.002
414.98	-0.002
415.19	-0.002
415.39	-0.002
415.60	-0.002
415.80	-0.002
416.01	-0.002
416.21	-0.002
416.42	-0.002
416.62	-0.002
416.83	-0.002
417.03	-0.002
417.24	-0.002
417.44	-0.002
417.65	-0.002
417.86	-0.002
418.06	-0.002
418.27	-0.002
418.47	-0.002
418.68	-0.002
418.88	-0.002
419.09	-0.002
419.29	-0.003
419.50	-0.003
419.70	-0.003
419.91	-0.002
420.11	-0.002
420.32	-0.002
420.52	-0.002
420.73	-0.002
420.93	-0.002
421.14	-0.002
421.34	-0.002
421.55	-0.002
421.75	-0.002
421.96	-0.002
422.16	-0.002
422.37	-0.002
422.57	-0.002
422.78	-0.002
422.98	-0.002
423.19	-0.002
423.39	-0.002
423.60	-0.002
423.80	-0.002
424.01	-0.002
424.21	-0.002
424.42	-0.002
424.62	-0.002
424.83	-0.002
425.03	-0.002
425.23	-0.002
425.44	-0.002
425.64	-0.002
425.85	-0.002
426.05	-0.002
426.26	-0.002
426.46	-0.002
426.67	-0.002
426.87	-0.002
427.08	-0.002
427.28	-0.002
427.49	-0.003
427.69	-0.003
427.90	-0.003
428.10	-0.003
428.31	-0.003
428.51	-0.003
428.71	-0.003
428.92	-0.003
429.12	-0.003
429.33	-0.003
429.53	-0.003
429.74	-0.003
429.94	-0.003
430.15	-0.002
430.35	-0.002
430.56	-0.002
430.76	-0.002
430.96	-0.002
431.17	-0.002
431.37	-0.002
431.58	-0.002
431.78	-0.002
431.99	-0.002
432.19	-0.002
432.40	-0.002
432.60	-0.002
432.80	-0.002
433.01	-0.002
433.21	-0.002
433.42	-0.002
433.62	-0.002
433.83	-0.002
434.03	-0.002
434.23	-0.002
434.44	-0.002
434.64	-0.002
434.85	-0.002
435.05	-0.002
435.26	-0.002
435.46	-0.002
435.66	-0.002
435.87	-0.002
436.07	-0.003
436.28	-0.003
436.48	-0.003
436.69	-0.003
436.89	-0.003
437.09	-0.003
437.30	-0.003
437.50	-0.002
437.71	-0.002
437.91	-0.002
438.11	-0.002
438.32	-0.002
438.52	-0.002
438.73	-0.002
438.93	-0.002
439.13	-0.002
439.34	-0.002
439.54	-0.002
439.75	-0.002
439.95	-0.003
440.15	-0.002
440.36	-0.002
440.56	-0.002
440.77	-0.002
440.97	-0.002
441.17	-0.002
441.38	-0.002
441.58	-0.002
441.79	-0.002
441.99	-0.002
442.19	-0.002
442.40	-0.002
442.60	-0.002
442.81	-0.002
443.01	-0.002
443.21	-0.002
443.42	-0.002
443.62	-0.002
443.82	-0.002
444.03	-0.002
444.23	-0.002
444.44	-0.002
444.64	-0.002
444.84	-0.002
445.05	-0.002
445.25	-0.002
445.45	-0.002
445.66	-0.002
445.86	-0.002
446.06	-0.002
446.27	-0.002
446.47	-0.002
446.68	-0.002
446.88	-0.002
447.08	-0.002
447.29	-0.002
447.49	-0.002
447.69	-0.002
447.90	-0.002
448.10	-0.002
448.30	-0.002
448.51	-0.002
448.71	-0.002
448.91	-0.002
449.12	-0.002
449.32	-0.002
449.52	-0.002
449.73	-0.002
449.93	-0.002
450.14	-0.002
450.34	-0.002
450.54	-0.002
450.75	-0.002
450.95	-0.002
451.15	-0.002
451.36	-0.002
451.56	-0.002
451.76	-0.002
451.97	-0.002
452.17	-0.002
452.37	-0.002
452.58	-0.002
452.78	-0.002
452.98	-0.002
453.19	-0.002
453.39	-0.002
453.59	-0.002
453.79	-0.002
454.00	-0.002
454.20	-0.002
454.40	-0.002
454.61	-0.002
454.81	-0.002
455.01	-0.002
455.22	-0.002
455.42	-0.002
455.62	-0.002
455.83	-0.002
456.03	-0.002
456.23	-0.002
456.44	-0.002
456.64	-0.002
456.84	-0.002
457.04	-0.002
457.25	-0.002
457.45	-0.002
457.65	-0.002
457.86	-0.002
458.06	-0.002
458.26	-0.002
458.47	-0.002
458.67	-0.002
458.87	-0.002
459.07	-0.002
459.28	-0.002
459.48	-0.002
459.68	-0.002
459.89	-0.002
460.09	-0.002
460.29	-0.002
460.49	-0.002
460.70	-0.002
460.90	-0.002
461.10	-0.002
461.31	-0.002
461.51	-0.002
461.71	-0.002
461.91	-0.002
462.12	-0.002
462.32	-0.002
462.52	-0.002
462.72	-0.002
462.93	-0.003
463.13	-0.003
463.33	-0.003
463.53	-0.003
463.74	-0.003
463.94	-0.003
464.14	-0.003
464.35	-0.003
464.55	-0.003
464.75	-0.003
464.95	-0.003
465.16	-0.003
465.36	-0.002
465.56	-0.002
465.76	-0.002
465.97	-0.002
466.17	-0.002
466.37	-0.002
466.57	-0.002
466.78	-0.002
466.98	-0.002
467.18	-0.002
467.38	-0.002
467.59	-0.002
467.79	-0.002
467.99	-0.002
468.19	-0.002
468.39	-0.002
468.60	-0.002
468.80	-0.002
469.00	-0.002
469.20	-0.002
469.41	-0.002
469.61	-0.002
469.81	-0.002
470.01	-0.002
470.22	-0.002
470.42	-0.002
470.62	-0.002
470.82	-0.002
471.02	-0.002
471.23	-0.002
471.43	-0.002
471.63	-0.002
471.83	-0.002
472.04	-0.002
472.24	-0.002
472.44	-0.003
472.64	-0.003
472.84	-0.003
473.05	-0.003
473.25	-0.003
473.45	-0.003
473.65	-0.003
473.85	-0.003
474.06	-0.003
474.26	-0.003
474.46	-0.003
474.66	-0.002
474.86	-0.002
475.07	-0.002
475.27	-0.002
475.47	-0.002
475.67	-0.002
475.87	-0.002
476.08	-0.002
476.28	-0.002
476.48	-0.002
476.68	-0.002
476.88	-0.002
477.09	-0.002
477.29	-0.002
477.49	-0.002
477.69	-0.002
477.89	-0.002
478.09	-0.002
478.30	-0.003
478.50	-0.003
478.70	-0.003
478.90	-0.003
479.10	-0.003
479.31	-0.003
479.51	-0.003
479.71	-0.003
479.91	-0.003
480.11	-0.003
480.31	-0.002
480.52	-0.002
480.72	-0.002
480.92	-0.002
481.12	-0.002
481.32	-0.002
481.52	-0.002
481.72	-0.003
481.93	-0.003
482.13	-0.003
482.33	-0.003
482.53	-0.003
482.73	-0.003
482.93	-0.003
483.14	-0.003
483.34	-0.003
483.54	-0.003
483.74	-0.003
483.94	-0.003
484.14	-0.003
484.34	-0.003
484.55	-0.003
484.75	-0.003
484.95	-0.003
485.15	-0.003
485.35	-0.003
485.55	-0.002
485.75	-0.002
485.96	-0.002
486.16	-0.002
486.36	-0.002
486.56	-0.002
486.76	-0.002
486.96	-0.002
487.16	-0.002
487.36	-0.002
487.57	-0.002
487.77	-0.002
487.97	-0.002
488.17	-0.002
488.37	-0.002
488.57	-0.002
488.77	-0.002
488.97	-0.002
489.18	-0.002
489.38	-0.002
489.58	-0.002
489.78	-0.002
489.98	-0.002
490.18	-0.002
490.38	-0.002
490.58	-0.002
490.78	-0.002
490.98	-0.002
491.19	-0.002
491.39	-0.002
491.59	-0.002
491.79	-0.002
491.99	-0.002
492.19	-0.002
492.39	-0.002
492.59	-0.002
492.79	-0.002
492.99	-0.002
493.20	-0.002
493.40	-0.002
493.60	-0.002
493.80	-0.002
494.00	-0.002
494.20	-0.002
494.40	-0.002
494.60	-0.002
494.80	-0.002
495.00	-0.002
495.20	-0.002
495.40	-0.002
495.61	-0.002
495.81	-0.002
496.01	-0.002
496.21	-0.002
496.41	-0.002
496.61	-0.002
496.81	-0.002
497.01	-0.002
497.21	-0.001
497.41	-0.001
497.61	-0.001
497.81	-0.001
498.01	-0.001
498.21	-0.001
498.41	-0.001
498.61	-0.001
498.82	-0.001
499.02	-0.001
499.22	-0.001
499.42	-0.002
499.62	-0.002
499.82	-0.002
500.02	-0.002
500.22	-0.002
500.42	-0.002
500.62	-0.002
500.82	-0.002
501.02	-0.002
501.22	-0.002
501.42	-0.002
501.62	-0.002
501.82	-0.002
502.02	-0.002
502.22	-0.002
502.42	-0.002
502.62	-0.002
502.82	-0.002
503.02	-0.002
503.22	-0.002
503.42	-0.002
503.63	-0.002
503.83	-0.002
504.03	-0.002
504.23	-0.001
504.43	-0.001
504.63	-0.001
504.83	-0.001
505.03	-0.001
505.23	-0.001
505.43	-0.001
505.63	-0.001
505.83	-0.001
506.03	-0.001
506.23	-0.001
506.43	-0.001
506.63	-0.001
506.83	-0.001
507.03	-0.001
507.23	-0.001
507.43	-0.001
507.63	-0.001
507.83	-0.001
508.03	-0.002
508.23	-0.001
508.43	-0.001
508.63	-0.001
508.83	-0.001
509.03	-0.001
509.23	-0.001
509.43	-0.001
509.63	-0.002
509.83	-0.002
510.03	-0.001
510.23	-0.002
510.43	-0.002
510.63	-0.002
510.83	-0.002
511.03	-0.002
511.23	-0.002
511.43	-0.002
511.63	-0.002
511.83	-0.002
512.03	-0.002
512.22	-0.001
512.42	-0.001
512.62	-0.001
512.82	-0.001
513.02	-0.001
513.22	-0.001
513.42	-0.001
513.62	-0.001
513.82	-0.001
514.02	-0.001
514.22	-0.001
514.42	-0.001
514.62	-0.001
514.82	-0.001
515.02	-0.001
515.22	-0.002
515.42	-0.002
515.62	-0.001
515.82	-0.002
516.02	-0.002
516.22	-0.002
516.42	-0.002
516.62	-0.002
516.82	-0.002
517.01	-0.002
517.21	-0.002
517.41	-0.001
517.61	-0.001
517.81	-0.001
518.01	-0.001
518.21	-0.001
518.41	-0.001
518.61	-0.001
518.81	-0.001
519.01	-0.001
519.21	-0.001
519.41	-0.001
519.61	-0.001
519.81	-0.001
520.00	-0.001
520.20	-0.001
520.40	-0.001
520.60	-0.001
520.80	-0.001
521.00	-0.001
521.20	-0.001
521.40	-0.001
521.60	-0.001
521.80	-0.001
522.00	-0.001
522.20	-0.001
522.39	-0.001
522.59	-0.001
522.79	-0.001
522.99	-0.001
523.19	-0.001
523.39	-0.001
523.59	-0.001
523.79	-0.001
523.99	-0.001
524.19	-0.001
524.38	-0.001
524.58	-0.001
524.78	-0.001
524.98	-0.001
525.18	-0.001
525.38	-0.001
525.58	-0.001
525.78	-0.001
525.98	-0.001
526.18	-0.001
526.37	-0.001
526.57	-0.001
526.77	-0.001
526.97	-0.001
527.17	-0.001
527.37	-0.001
527.57	-0.001
527.77	-0.001
527.96	-0.001
528.16	-0.001
528.36	-0.002
528.56	-0.002
528.76	-0.002
528.96	-0.002
529.16	-0.001
529.36	-0.001
529.55	-0.001
529.75	-0.001
529.95	-0.001
530.15	-0.001
530.35	-0.001
530.55	-0.001
530.75	-0.001
530.94	-0.001
531.14	-0.001
531.34	-0.001
531.54	-0.001
531.74	-0.001
531.94	-0.001
532.13	-0.001
532.33	-0.001
532.53	-0.001
532.73	-0.001
532.93	-0.001
533.13	-0.001
533.33	-0.001
533.52	-0.001
533.72	-0.001
533.92	-0.001
534.12	-0.001
534.32	-0.001
534.52	-0.001
534.71	-0.001
534.91	-0.001
535.11	-0.000
535.31	-0.001
535.51	-0.001
535.71	-0.001
535.90	-0.001
536.10	-0.001
536.30	-0.001
536.50	-0.001
536.70	-0.001
536.89	-0.001
537.09	-0.001
537.29	-0.001
537.49	-0.001
537.69	-0.001
537.89	-0.001
538.08	-0.001
538.28	-0.001
538.48	-0.001
538.68	-0.001
538.88	-0.001
539.07	-0.001
539.27	-0.001
539.47	-0.001
539.67	-0.001
539.87	-0.001
540.06	-0.001
540.26	-0.001
540.46	-0.001
540.66	-0.001
540.86	-0.001
541.05	-0.000
541.25	-0.000
541.45	-0.000
541.65	-0.000
541.84	-0.000
542.04	-0.001
542.24	-0.001
542.44	-0.001
542.64	-0.001
542.83	-0.001
543.03	-0.001
543.23	-0.001
543.43	-0.001
543.62	-0.001
543.82	-0.001
544.02	-0.001
544.22	-0.001
544.42	-0.001
544.61	-0.001
544.81	-0.001
545.01	-0.001
545.21	-0.001
545.40	-0.001
545.60	-0.001
545.80	-0.001
546.00	-0.001
546.19	-0.001
546.39	-0.001
546.59	-0.001
546.79	-0.000
546.98	-0.000
547.18	-0.000
547.38	-0.000
547.58	-0.000
547.77	-0.000
547.97	-0.000
548.17	-0.001
548.37	-0.001
548.56	-0.000
548.76	-0.000
548.96	-0.000
549.16	-0.000
549.35	-0.000
549.55	-0.000
549.75	-0.000
549.95	-0.000
550.14	-0.000
550.34	-0.000
550.54	-0.000
550.73	-0.000
550.93	-0.000
551.13	-0.001
551.33	-0.001
551.52	-0.001
551.72	-0.001
551.92	-0.001
552.12	-0.001
552.31	-0.001
552.51	-0.001
552.71	-0.001
552.90	-0.001
553.10	-0.001
553.30	-0.001
553.50	-0.001
553.69	-0.001
553.89	-0.001
554.09	-0.000
554.28	-0.000
554.48	-0.000
554.68	-0.000
554.87	-0.000
555.07	-0.000
555.27	0.000
555.47	0.000
555.66	0.000
555.86	0.000
556.06	0.000
556.25	0.000
556.45	0.000
556.65	0.000
556.84	0.000
557.04	0.000
557.24	0.000
557.43	0.000
557.63	-0.000
557.83	-0.000
558.02	-0.000
558.22	-0.001
558.42	-0.001
558.61	-0.001
558.81	-0.001
559.01	-0.001
559.21	-0.001
559.40	-0.001
559.60	-0.001
559.80	-0.001
559.99	-0.001
560.19	-0.001
560.39	-0.001
560.58	-0.001
560.78	-0.001
560.97	-0.001
561.17	-0.001
561.37	-0.001
561.56	-0.001
561.76	-0.001
561.96	-0.000
562.15	-0.000
562.35	-0.000
562.55	-0.000
562.74	-0.000
562.94	-0.000
563.14	-0.000
563.33	-0.000
563.53	-0.000
563.73	-0.000
563.92	0.000
564.12	0.000
564.31	-0.000
564.51	-0.000
564.71	-0.000
564.90	0.000
565.10	-0.000
565.30	0.000
565.49	-0.000
565.69	-0.000
565.89	-0.000
566.08	-0.000
566.28	-0.000
566.47	-0.000
566.67	-0.001
566.87	-0.001
567.06	-0.001
567.26	-0.001
567.46	-0.001
567.65	-0.001
567.85	-0.001
568.04	-0.002
568.24	-0.002
568.44	-0.002
568.63	-0.002
568.83	-0.002
569.02	-0.002
569.22	-0.002
569.42	-0.002
569.61	-0.002
569.81	-0.002
570.00	-0.002
570.20	-0.002
570.40	-0.002
570.59	-0.002
570.79	-0.002
570.98	-0.002
571.18	-0.002
571.38	-0.002
571.57	-0.002
571.77	-0.002
571.96	-0.002
572.16	-0.002
572.35	-0.002
572.55	-0.001
572.75	-0.001
572.94	-0.001
573.14	-0.001
573.33	-0.001
573.53	-0.001
573.73	-0.001
573.92	-0.001
574.12	-0.001
574.31	-0.001
574.51	-0.001
574.70	-0.001
574.90	-0.001
575.09	-0.001
575.29	-0.001
575.49	-0.001
575.68	-0.001
575.88	-0.000
576.07	-0.000
576.27	-0.000
576.46	-0.000
576.66	-0.000
576.86	-0.000
577.05	-0.000
577.25	-0.000
577.44	-0.000
577.64	-0.000
577.83	-0.000
578.03	-0.000
578.22	-0.000
578.42	-0.000
578.61	-0.000
578.81	-0.000
579.00	-0.000
579.20	-0.000
579.40	-0.000
579.59	-0.000
579.79	-0.000
579.98	-0.000
580.18	-0.000
580.37	-0.000
580.57	-0.000
580.76	-0.000
580.96	-0.000
581.15	-0.000
581.35	-0.000
581.54	-0.000
581.74	-0.000
581.93	-0.000
582.13	-0.000
582.32	-0.000
582.52	-0.000
582.71	-0.000
582.91	-0.000
583.10	-0.000
583.30	-0.000
583.49	-0.000
583.69	-0.000
583.88	-0.000
584.08	-0.000
584.27	-0.000
584.47	-0.000
584.66	-0.000
584.86	-0.000
585.05	-0.000
585.25	-0.000
585.44	-0.000
585.64	-0.000
585.83	-0.000
586.03	-0.000
586.22	-0.000
586.42	-0.000
586.61	-0.000
586.81	0.000
587.00	0.000
587.20	0.000
587.39	0.000
587.59	0.000
587.78	0.000
587.98	0.000
588.17	0.000
588.37	0.000
588.56	0.000
588.76	0.000
588.95	0.000
589.15	0.000
589.34	0.000
589.54	0.000
589.73	-0.000
589.92	-0.000
590.12	-0.000
590.31	-0.001
590.51	-0.001
590.70	-0.001
590.90	-0.001
591.09	-0.001
591.29	-0.001
591.48	-0.001
591.68	-0.001
591.87	-0.001
592.06	-0.001
592.26	-0.001
592.45	-0.001
592.65	-0.001
592.84	-0.001
593.04	-0.001
593.23	-0.001
593.43	-0.001
593.62	-0.001
593.81	-0.000
594.01	-0.000
594.20	-0.000
594.40	0.000
594.59	0.000
594.79	0.000
594.98	0.001
595.17	0.001
595.37	0.001
595.56	0.000
595.76	0.000
595.95	0.000
596.14	-0.000
596.34	-0.000
596.53	-0.001
596.73	-0.001
596.92	-0.001
597.12	-0.002
597.31	-0.002
597.50	-0.002
597.70	-0.002
597.89	-0.002
598.09	-0.002
598.28	-0.002
598.47	-0.002
598.67	-0.002
598.86	-0.001
599.06	-0.001
599.25	-0.001
599.44	-0.001
599.64	-0.001
599.83	-0.001
600.03	-0.001
600.22	-0.000
600.41	-0.000
600.61	-0.000
600.80	0.000
601.00	0.000
601.19	0.000
601.38	0.000
601.58	0.000
601.77	0.001
601.96	0.001
602.16	0.001
602.35	0.001
602.55	0.000
602.74	0.000
602.93	0.000
603.13	-0.000
603.32	-0.000
603.51	-0.000
603.71	-0.001
603.90	-0.001
604.09	-0.001
604.29	-0.001
604.48	-0.001
604.68	-0.001
604.87	-0.001
605.06	-0.001
605.26	-0.001
605.45	-0.001
605.64	-0.001
605.84	-0.001
606.03	-0.001
606.22	-0.001
606.42	-0.000
606.61	-0.000
606.80	0.000
607.00	0.000
607.19	0.000
607.38	0.000
607.58	0.000
607.77	0.000
607.96	0.000
608.16	0.001
608.35	0.001
608.54	0.001
608.74	0.001
608.93	0.001
609.12	0.001
609.32	0.001
609.51	0.001
609.70	0.001
609.90	0.001
610.09	0.001
610.28	0.001
610.48	0.000
610.67	0.000
610.86	0.000
611.06	0.000
611.25	0.000
611.44	-0.000
611.64	-0.000
611.83	-0.000
612.02	-0.000
612.21	-0.001
612.41	-0.001
612.60	-0.000
612.79	-0.001
612.99	-0.000
613.18	-0.000
613.37	-0.001
613.57	-0.000
613.76	-0.000
613.95	-0.000
614.14	-0.000
614.34	0.000
614.53	0.000
614.72	0.000
614.92	0.000
615.11	0.000
615.30	0.000
615.49	0.001
615.69	0.001
615.88	0.001
616.07	0.001
616.26	0.001
616.46	0.001
616.65	0.001
616.84	0.001
617.04	0.001
617.23	0.001
617.42	0.001
617.61	0.001
617.81	0.001
618.00	0.001
618.19	0.002
618.38	0.001
618.58	0.001
618.77	0.001
618.96	0.001
619.15	0.001
619.35	0.001
619.54	0.001
619.73	0.001
619.92	0.001
620.12	0.001
620.31	0.001
620.50	0.001
620.69	0.001
620.89	0.001
621.08	0.001
621.27	0.001
621.46	0.001
621.66	0.000
621.85	0.001
622.04	0.001
622.23	0.001
622.43	0.001
622.62	0.001
622.81	0.001
623.00	0.001
623.19	0.001
623.39	0.001
623.58	0.001
623.77	0.001
623.96	0.001
624.16	0.001
624.35	0.001
624.54	0.001
624.73	0.001
624.92	0.001
625.12	0.001
625.31	0.001
625.50	0.001
625.69	0.001
625.88	0.001
626.08	0.001
626.27	0.002
626.46	0.002
626.65	0.002
626.84	0.002
627.04	0.002
627.23	0.002
627.42	0.002
627.61	0.002
627.80	0.002
628.00	0.002
628.19	0.002
628.38	0.002
628.57	0.002
628.76	0.002
628.96	0.002
629.15	0.002
629.34	0.002
629.53	0.002
629.72	0.002
629.91	0.002
630.11	0.002
630.30	0.002
630.49	0.002
630.68	0.002
630.87	0.002
631.06	0.002
631.26	0.002
631.45	0.002
631.64	0.003
631.83	0.003
632.02	0.003
632.21	0.003
632.41	0.003
632.60	0.003
632.79	0.003
632.98	0.003
633.17	0.002
633.36	0.002
633.55	0.002
633.75	0.002
633.94	0.002
634.13	0.002
634.32	0.002
634.51	0.002
634.70	0.002
634.89	0.002
635.09	0.002
635.28	0.002
635.47	0.002
635.66	0.003
635.85	0.003
636.04	0.003
636.23	0.003
636.43	0.003
636.62	0.003
636.81	0.003
637.00	0.003
637.19	0.003
637.38	0.003
637.57	0.003
637.76	0.003
637.95	0.003
638.15	0.003
638.34	0.003
638.53	0.003
638.72	0.003
638.91	0.003
639.10	0.003
639.29	0.003
639.48	0.003
639.67	0.003
639.87	0.003
640.06	0.003
640.25	0.003
640.44	0.003
640.63	0.003
640.82	0.003
641.01	0.003
641.20	0.003
641.39	0.003
641.58	0.003
641.78	0.003
641.97	0.003
642.16	0.003
642.35	0.003
642.54	0.003
642.73	0.003
642.92	0.003
643.11	0.003
643.30	0.003
643.49	0.003
643.68	0.003
643.87	0.003
644.06	0.003
644.25	0.003
644.45	0.003
644.64	0.003
644.83	0.003
645.02	0.003
645.21	0.003
645.40	0.003
645.59	0.003
645.78	0.003
645.97	0.003
646.16	0.003
646.35	0.003
646.54	0.002
646.73	0.002
646.92	0.002
647.11	0.002
647.30	0.002
647.49	0.002
647.68	0.002
647.88	0.002
648.07	0.002
648.26	0.002
648.45	0.002
648.64	0.002
648.83	0.002
649.02	0.002
649.21	0.002
649.40	0.002
649.59	0.002
649.78	0.003
649.97	0.003
650.16	0.003
650.35	0.003
650.54	0.003
650.73	0.003
650.92	0.003
651.11	0.003
651.30	0.003
651.49	0.003
651.68	0.003
651.87	0.003
652.06	0.003
652.25	0.003
652.44	0.003
652.63	0.002
652.82	0.001
653.01	-0.000
653.20	-0.001
653.39	-0.001
653.58	-0.002
653.77	-0.002
653.96	-0.002
654.15	-0.002
654.34	-0.002
654.53	-0.002
654.72	-0.002
654.91	-0.001
655.10	-0.001
655.29	-0.000
655.48	-0.000
655.67	0.000
655.86	0.000
656.05	0.000
656.24	0.000
656.43	0.001
656.62	0.001
656.81	0.001
657.00	0.002
657.19	0.003
657.38	0.003
657.57	0.003
657.76	0.004
657.95	0.004
658.14	0.005
658.33	0.005
658.51	0.005
658.70	0.006
658.89	0.006
659.08	0.005
659.27	0.005
659.46	0.004
659.65	0.004
659.84	0.004
660.03	0.004
660.22	0.004
660.41	0.004
660.60	0.004
660.79	0.003
660.98	0.004
661.17	0.004
661.36	0.004
661.55	0.003
661.74	0.003
661.92	0.003
662.11	0.003
662.30	0.003
662.49	0.003
662.68	0.003
662.87	0.003
663.06	0.003
663.25	0.003
663.44	0.003
663.63	0.003
663.82	0.003
664.01	0.003
664.20	0.003
664.38	0.003
664.57	0.003
664.76	0.003
664.95	0.003
665.14	0.003
665.33	0.003
665.52	0.003
665.71	0.003
665.90	0.003
666.09	0.003
666.28	0.003
666.46	0.003
666.65	0.003
666.84	0.003
667.03	0.003
667.22	0.003
667.41	0.003
667.60	0.003
667.79	0.003
667.98	0.003
668.16	0.003
668.35	0.003
668.54	0.003
668.73	0.003
668.92	0.003
669.11	0.003
669.30	0.003
669.49	0.003
669.67	0.003
669.86	0.002
670.05	0.002
670.24	0.002
670.43	0.002
670.62	0.002
670.81	0.002
671.00	0.002
671.18	0.002
671.37	0.002
671.56	0.002
671.75	0.002
671.94	0.002
672.13	0.002
672.32	0.002
672.50	0.002
672.69	0.002
672.88	0.003
673.07	0.003
673.26	0.003
673.45	0.003
673.63	0.003
673.82	0.003
674.01	0.003
674.20	0.003
674.39	0.004
674.58	0.004
674.76	0.004
674.95	0.004
675.14	0.003
675.33	0.003
675.52	0.003
675.71	0.003
675.89	0.003
676.08	0.003
676.27	0.003
676.46	0.003
676.65	0.003
676.84	0.003
677.02	0.003
677.21	0.003
677.40	0.003
677.59	0.003
677.78	0.003
677.96	0.003
678.15	0.003
678.34	0.003
678.53	0.003
678.72	0.003
678.90	0.003
679.09	0.003
679.28	0.003
679.47	0.003
679.66	0.003
679.84	0.003
680.03	0.003
680.22	0.003
680.41	0.003
680.60	0.003
680.78	0.003
680.97	0.003
681.16	0.003
681.35	0.003
681.53	0.003
681.72	0.003
681.91	0.003
682.10	0.003
682.29	0.003
682.47	0.003
682.66	0.003
682.85	0.003
683.04	0.003
683.22	0.003
683.41	0.003
683.60	0.003
683.79	0.003
683.97	0.003
684.16	0.003
684.35	0.003
684.54	0.003
684.72	0.003
684.91	0.003
685.10	0.003
685.29	0.003
685.47	0.003
685.66	0.003
685.85	0.003
686.04	0.003
686.22	0.003
686.41	0.003
686.60	0.003
686.79	0.003
686.97	0.003
687.16	0.003
687.35	0.003
687.54	0.003
687.72	0.003
687.91	0.003
688.10	0.003
688.29	0.003
688.47	0.003
688.66	0.003
688.85	0.003
689.03	0.003
689.22	0.003
689.41	0.003
689.60	0.003
689.78	0.003
689.97	0.003
690.16	0.003
690.34	0.003
690.53	0.003
690.72	0.003
690.91	0.003
691.09	0.003
691.28	0.003
691.47	0.003
691.65	0.003
691.84	0.003
692.03	0.003
692.21	0.003
692.40	0.003
692.59	0.003
692.77	0.003
692.96	0.003
693.15	0.003
693.34	0.003
693.52	0.004
693.71	0.004
693.90	0.004
694.08	0.003
694.27	0.003
694.46	0.003
694.64	0.003
694.83	0.003
695.02	0.003
695.20	0.003
695.39	0.003
695.58	0.003
695.76	0.003
695.95	0.003
696.14	0.003
696.32	0.003
696.51	0.003
696.70	0.003
696.88	0.003
697.07	0.003
697.26	0.003
697.44	0.003
697.63	0.003
697.81	0.003
698.00	0.003
698.19	0.004
698.37	0.003
698.56	0.004
698.75	0.004
698.93	0.004
699.12	0.004
699.31	0.004
699.49	0.004
699.68	0.004
699.87	0.004
700.05	0.004
700.24	0.004
700.42	0.004
700.61	0.004
700.80	0.004
700.98	0.004
701.17	0.003
701.36	0.003
701.54	0.003
701.73	0.004
701.91	0.004
702.10	0.004
702.29	0.004
702.47	0.004
702.66	0.004
702.84	0.004
703.03	0.004
703.22	0.004
703.40	0.004
703.59	0.004
703.77	0.004
703.96	0.004
704.15	0.004
704.33	0.004
704.52	0.004
704.70	0.004
704.89	0.004
705.08	0.004
705.26	0.003
705.45	0.003
705.63	0.003
705.82	0.003
706.00	0.003
706.19	0.003
706.38	0.003
706.56	0.003
706.75	0.003
706.93	0.003
707.12	0.003
707.30	0.003
707.49	0.003
707.68	0.003
707.86	0.003
708.05	0.003
708.23	0.003
708.42	0.003
708.60	0.003
708.79	0.003
708.98	0.003
709.16	0.003
709.35	0.003
709.53	0.003
709.72	0.003
709.90	0.003
710.09	0.003
710.27	0.004
710.46	0.004
710.64	0.004
710.83	0.004
711.02	0.004
711.20	0.004
711.39	0.004
711.57	0.004
711.76	0.004
711.94	0.004
712.13	0.004
712.31	0.004
712.50	0.004
712.68	0.003
712.87	0.004
713.05	0.003
713.24	0.003
713.42	0.003
713.61	0.003
713.79	0.003
713.98	0.003
714.16	0.003
714.35	0.004
714.54	0.004
714.72	0.004
714.91	0.004
715.09	0.004
715.28	0.004
715.46	0.004
715.65	0.004
715.83	0.004
716.02	0.003
716.20	0.003
716.39	0.003
716.57	0.003
716.76	0.003
716.94	0.003
717.12	0.003
717.31	0.003
717.49	0.003
717.68	0.003
717.86	0.003
718.05	0.003
718.23	0.003
718.42	0.002
718.60	0.003
718.79	0.002
718.97	0.002
719.16	0.002
719.34	0.003
719.53	0.003
719.71	0.003
719.90	0.003
720.08	0.003
720.27	0.003
720.45	0.003
720.63	0.003
720.82	0.003
721.00	0.003
721.19	0.003
721.37	0.003
721.56	0.003
721.74	0.003
721.93	0.003
722.11	0.003
722.30	0.003
722.48	0.003
722.66	0.003
722.85	0.003
723.03	0.003
723.22	0.003
723.40	0.003
723.59	0.003
723.77	0.003
723.95	0.003
724.14	0.003
724.32	0.003
724.51	0.003
724.69	0.003
724.88	0.002
725.06	0.003
725.24	0.003
725.43	0.003
725.61	0.002
725.80	0.002
725.98	0.002
726.16	0.002
726.35	0.002
726.53	0.002
726.72	0.002
726.90	0.002
727.09	0.002
727.27	0.002
727.45	0.002
727.64	0.002
727.82	0.002
728.01	0.002
728.19	0.003
728.37	0.002
728.56	0.002
728.74	0.002
728.92	0.002
729.11	0.002
729.29	0.003
729.48	0.002
729.66	0.002
729.84	0.002
730.03	0.002
730.21	0.002
730.40	0.002
730.58	0.002
730.76	0.002
730.95	0.002
731.13	0.002
731.31	0.001
731.50	0.002
731.68	0.002
731.86	0.001
732.05	0.002
732.23	0.002
732.42	0.002
732.60	0.002
732.78	0.001
732.97	0.001
733.15	0.001
733.33	0.001
733.52	0.000
733.70	0.000
733.88	0.000
734.07	-0.000
734.25	-0.000
734.43	-0.000
734.62	-0.001
734.80	-0.001
734.98	-0.001
735.17	-0.001
735.35	-0.001
735.53	-0.001
735.72	-0.000
735.90	-0.001
736.08	-0.000
736.27	-0.001
736.45	-0.001
736.63	-0.000
736.82	-0.000
737.00	-0.000
737.18	-0.000
737.37	-0.000
737.55	-0.000
737.73	-0.001
737.92	-0.001
738.10	-0.002
738.28	-0.001
738.46	-0.001
738.65	-0.001
738.83	-0.002
739.01	-0.002
739.20	-0.002
739.38	-0.002
739.56	-0.002
739.75	-0.002
739.93	-0.001
740.11	-0.000
740.29	-0.000
740.48	-0.000
740.66	-0.001
740.84	-0.000
741.03	-0.000
741.21	0.001
741.39	0.001
741.57	0.000
741.76	0.001
741.94	0.000
742.12	-0.000
742.31	-0.000
742.49	-0.000
742.67	0.000
742.85	-0.000
743.04	0.000
743.22	0.000
743.40	0.000
743.58	0.001
743.77	0.000
743.95	0.000
744.13	0.000
744.31	0.001
744.50	0.001
744.68	-0.000
744.86	0.000
745.04	0.000
745.23	0.000
745.41	-0.000
745.59	0.000
745.77	0.000
745.96	0.001
746.14	0.001
746.32	0.001
746.50	0.001
746.69	0.002
746.87	0.001
747.05	0.001
747.23	0.001
747.42	0.002
747.60	0.002
747.78	0.002
747.96	0.001
748.14	0.001
748.33	0.002
748.51	0.002
748.69	0.002
748.87	0.002
749.06	0.003
749.24	0.003
749.42	0.002
749.60	0.002
749.78	0.002
749.97	0.002
750.15	0.002
750.33	0.001
750.51	0.001
750.69	0.000
750.88	0.000
751.06	-0.000
751.24	0.000
751.42	0.000
751.60	0.000
751.79	0.001
751.97	0.000
752.15	0.000
752.33	0.001
752.51	0.000
752.69	0.000
752.88	0.000
753.06	0.001
753.24	0.001
753.42	0.001
753.60	0.001
753.78	0.001
753.97	0.001
754.15	0.001
754.33	0.001
754.51	0.001
754.69	0.001
754.87	0.001
755.06	0.000
755.24	-0.000
755.42	0.000
755.60	0.000
755.78	0.000
755.96	0.001
756.15	0.001
756.33	0.000
756.51	0.001
756.69	0.001
756.87	0.001
757.05	0.001
757.23	0.001
757.42	0.001
757.60	0.000
757.78	0.000
757.96	0.000
758.14	0.000
758.32	0.000
758.50	0.000
758.69	0.000
758.87	0.000
759.05	0.001
759.23	0.002
759.41	0.002
759.59	0.002
759.77	0.003
759.95	0.003
760.13	0.003
760.32	0.003
760.50	0.004
760.68	0.004
760.86	0.003
761.04	0.003
761.22	0.003
761.40	0.003
761.58	0.003
761.76	0.003
761.95	0.003
762.13	0.004
762.31	0.004
762.49	0.004
762.67	0.004
762.85	0.003
763.03	0.003
763.21	0.003
763.39	0.003
763.57	0.003
763.75	0.003
763.94	0.003
764.12	0.002
764.30	0.002
764.48	0.002
764.66	0.002
764.84	0.001
765.02	0.002
765.20	0.002
765.38	0.002
765.56	0.002
765.74	0.002
765.92	0.002
766.10	0.002
766.28	0.002
766.46	0.002
766.65	0.002
766.83	0.002
767.01	0.002
767.19	0.002
767.37	0.002
767.55	0.002
767.73	0.003
767.91	0.003
768.09	0.003
768.27	0.003
768.45	0.003
768.63	0.003
768.81	0.003
768.99	0.003
769.17	0.003
769.35	0.003
769.53	0.003
769.71	0.003
769.89	0.003
770.07	0.003
770.25	0.003
770.43	0.004
770.61	0.004
770.79	0.004
770.97	0.004
771.15	0.004
771.33	0.003
771.51	0.004
771.69	0.004
771.87	0.003
772.05	0.003
772.24	0.003
772.42	0.003
772.60	0.003
772.78	0.003
772.96	0.004
773.14	0.004
773.32	0.004
773.49	0.004
773.67	0.004
773.85	0.004
774.03	0.004
774.21	0.004
774.39	0.003
774.57	0.003
774.75	0.003
774.93	0.003
775.11	0.003
775.29	0.004
775.47	0.003
775.65	0.003
775.83	0.003
776.01	0.003
776.19	0.004
776.37	0.004
776.55	0.004
776.73	0.004
776.91	0.004
777.09	0.003
777.27	0.003
777.45	0.003
777.63	0.004
777.81	0.004
777.99	0.004
778.17	0.004
778.35	0.004
778.53	0.004
778.71	0.004
778.89	0.004
779.07	0.003
779.24	0.003
779.42	0.003
779.60	0.003
779.78	0.003
779.96	0.002
780.14	0.002
780.32	0.002
780.50	0.002
780.68	0.002
780.86	0.002
781.04	0.003
781.22	0.003
781.40	0.003
781.58	0.003
781.75	0.003
781.93	0.004
782.11	0.004
782.29	0.005
782.47	0.005
782.65	0.005
782.83	0.005
783.01	0.006
783.19	0.006
783.37	0.005
783.55	0.005
783.72	0.005
783.90	0.005
784.08	0.006
784.26	0.005
784.44	0.005
784.62	0.005
784.80	0.005
784.98	0.005
785.16	0.005
785.33	0.005
785.51	0.005
785.69	0.005
785.87	0.005
786.05	0.004
786.23	0.005
786.41	0.004
786.59	0.004
786.77	0.004
786.94	0.004
787.12	0.004
787.30	0.003
787.48	0.003
787.66	0.004
787.84	0.004
788.02	0.004
788.19	0.004
788.37	0.004
788.55	0.004
788.73	0.004
788.91	0.005
789.09	0.005
789.27	0.005
789.44	0.005
789.62	0.005
789.80	0.005
789.98	0.005
790.16	0.005
790.34	0.004
790.51	0.005
790.69	0.004
790.87	0.004
791.05	0.004
791.23	0.005
791.41	0.005
791.58	0.005
791.76	0.005
791.94	0.005
792.12	0.005
792.30	0.005
792.48	0.005
792.65	0.005
792.83	0.004
793.01	0.004
793.19	0.004
793.37	0.004
793.54	0.004
793.72	0.004
793.90	0.005
794.08	0.005
794.26	0.005
794.43	0.005
794.61	0.005
794.79	0.006
794.97	0.006
795.15	0.006
795.32	0.006
795.50	0.006
795.68	0.006
795.86	0.006
796.04	0.006
796.21	0.006
796.39	0.006
796.57	0.006
796.75	0.005
796.92	0.005
797.10	0.005
797.28	0.006
797.46	0.006
797.64	0.005
797.81	0.005
797.99	0.005
798.17	0.004
798.35	0.005
798.52	0.005
798.70	0.006
798.88	0.005
799.06	0.005
799.23	0.005
799.41	0.005
799.59	0.005
799.77	0.006
799.94	0.006
800.12	0.006
800.30	0.005
800.48	0.005
800.65	0.004
800.83	0.004
801.01	0.005
801.19	0.005
801.36	0.004
801.54	0.004
801.72	0.004
801.90	0.004
802.07	0.004
802.25	0.004
802.43	0.004
802.60	0.004
802.78	0.005
802.96	0.004
803.14	0.004
803.31	0.004
803.49	0.004
803.67	0.005
803.84	0.005
804.02	0.004
804.20	0.005
804.38	0.005
804.55	0.005
804.73	0.005
804.91	0.004
805.08	0.004
805.26	0.005
805.44	0.005
805.61	0.005
805.79	0.005
805.97	0.005
806.15	0.005
806.32	0.005
806.50	0.004
806.68	0.004
806.85	0.004
807.03	0.004
807.21	0.004
807.38	0.004
807.56	0.005
807.74	0.004
807.91	0.004
808.09	0.004
808.27	0.004
808.44	0.004
808.62	0.004
808.80	0.005
808.97	0.005
809.15	0.005
809.33	0.005
809.50	0.005
809.68	0.005
809.86	0.005
810.03	0.006
810.21	0.006
810.39	0.006
810.56	0.006
810.74	0.005
810.91	0.005
811.09	0.005
811.27	0.005
811.44	0.004
811.62	0.004
811.80	0.004
811.97	0.004
812.15	0.004
812.33	0.004
812.50	0.004
812.68	0.004
812.85	0.005
813.03	0.004
813.21	0.004
813.38	0.004
813.56	0.005
813.74	0.005
813.91	0.005
814.09	0.005
814.26	0.005
814.44	0.005
814.62	0.005
814.79	0.005
814.97	0.005
815.14	0.006
815.32	0.005
815.50	0.005
815.67	0.005
815.85	0.005
816.02	0.005
816.20	0.005
816.38	0.005
816.55	0.005
816.73	0.005
816.90	0.005
817.08	0.005
817.26	0.005
817.43	0.005
817.61	0.005
817.78	0.005
817.96	0.005
818.13	0.005
818.31	0.004
818.49	0.004
818.66	0.004
818.84	0.004
819.01	0.003
819.19	0.004
819.36	0.004
819.54	0.004
819.71	0.004
819.89	0.004
820.07	0.004
820.24	0.004
820.42	0.004
820.59	0.004
820.77	0.004
820.94	0.004
821.12	0.004
821.29	0.004
821.47	0.004
821.64	0.004
821.82	0.005
822.00	0.004
822.17	0.004
822.35	0.004
822.52	0.004
822.70	0.004
822.87	0.004
823.05	0.004
823.22	0.004
823.40	0.004
823.57	0.004
823.75	0.003
823.92	0.003
824.10	0.003
824.27	0.003
824.45	0.004
824.62	0.004
824.80	0.004
824.97	0.004
825.15	0.004
825.32	0.005
825.50	0.005
825.67	0.005
825.85	0.005
826.02	0.005
826.20	0.005
826.37	0.006
826.55	0.005
826.72	0.005
826.90	0.005
827.07	0.005
827.25	0.005
827.42	0.005
827.60	0.005
827.77	0.005
827.95	0.005
828.12	0.005
828.30	0.005
828.47	0.005
828.65	0.005
828.82	0.005
829.00	0.005
829.17	0.006
829.34	0.007
829.52	0.007
829.69	0.007
829.87	0.007
830.04	0.006
830.22	0.007
830.39	0.006
830.57	0.007
830.74	0.006
830.92	0.006
831.09	0.005
831.26	0.005
831.44	0.006
831.61	0.006
831.79	0.007
831.96	0.007
832.14	0.007
832.31	0.007
832.49	0.006
832.66	0.006
832.83	0.006
833.01	0.006
833.18	0.007
833.36	0.004
833.53	0.004
833.70	0.003
833.88	0.004
834.05	0.002
834.23	0.002
834.40	0.001
834.58	0.001
834.75	0.001
834.92	0.001
835.10	-0.001
835.27	-0.000
835.45	-0.000
835.62	0.000
835.79	0.002
835.97	0.002
836.14	0.002
836.32	0.002
836.49	0.002
836.66	0.002
836.84	0.002
837.01	0.002
837.18	0.003
837.36	0.003
837.53	0.003
837.71	0.000
837.88	0.001
838.05	-0.002
838.23	-0.001
838.40	0.001
838.58	-0.000
838.75	-0.001
838.92	-0.001
839.10	-0.003
839.27	-0.002
839.44	-0.002
839.62	-0.001
839.79	0.001
839.96	0.005
840.14	0.004
840.31	0.004
840.48	0.004
840.66	0.007
840.83	0.007
841.01	0.007
841.18	0.007
841.35	0.006
841.53	0.005
841.70	0.005
841.87	0.004
842.05	0.002
842.22	0.003
842.39	0.004
842.57	0.001
842.74	0.001
842.91	0.003
843.09	0.002
843.26	0.004
843.43	0.004
843.60	0.003
843.78	0.004
843.95	0.006
844.12	0.003
844.30	0.003
844.47	0.003
844.64	0.004
844.82	0.003
844.99	0.002
845.16	0.002
845.34	0.002
845.51	0.002
845.68	0.001
845.85	-0.001
846.03	-0.000
846.20	-0.000
846.37	0.001
846.55	0.002
846.72	0.002
846.89	0.004
847.06	0.003
847.24	0.005
847.41	0.005
847.58	0.005
847.76	0.007
847.93	0.008
848.10	0.004
848.27	0.005
848.45	0.005
848.62	0.005
848.79	0.004
848.97	0.002
849.14	-0.001
849.31	0.001
849.48	0.001
849.66	-0.000
849.83	0.000
850.00	0.004
850.17	0.001
850.35	-0.003
850.52	-0.003
850.69	-0.000
850.86	0.002
851.04	0.005
851.21	0.004
851.38	0.004
851.55	0.004
851.72	0.003
851.90	0.005
852.07	0.007
852.24	0.009
852.41	0.007
852.59	0.007
852.76	0.005
852.93	0.005
853.10	0.007
853.28	0.009
853.45	0.009
853.62	0.008
853.79	0.006
853.96	0.006
854.14	0.009
854.31	0.012
854.48	0.011
854.65	0.012
854.82	0.013
855.00	0.010
855.17	0.010
855.34	0.011
855.51	0.011
855.68	0.012
855.86	0.013
856.03	0.011
856.20	0.007
856.37	0.006
856.54	0.008
856.72	0.005
856.89	0.004
857.06	0.002
857.23	0.003
857.40	0.004
857.57	0.005
857.75	0.005
857.92	0.007
858.09	0.008
858.26	0.008
858.43	0.005
858.60	0.006
858.78	0.008
858.95	0.009
859.12	0.009
859.29	0.004
859.46	0.002
859.63	0.005
859.81	0.004
859.98	0.006
860.15	0.007
860.32	0.011
860.49	0.010
860.66	0.008
860.83	0.008
861.01	0.008
861.18	0.010
861.35	0.011
861.52	0.009
861.69	0.006
861.86	0.006
862.03	0.005
862.21	0.006
862.38	0.007
862.55	0.010
862.72	0.011
862.89	0.011
863.06	0.012
863.23	0.014
863.40	0.012
863.58	0.011
863.75	0.010
863.92	0.006
864.09	0.005
864.26	0.003
864.43	-0.002
864.60	-0.003
864.77	-0.003
864.94	-0.001
865.11	-0.003
865.29	-0.002
865.46	0.001
865.63	0.003
865.80	0.006
865.97	0.006
866.14	0.009
866.31	0.009
866.48	0.009
866.65	0.009
866.82	0.010
866.99	0.009
867.16	0.005
867.34	0.004
867.51	0.007
867.68	0.007
867.85	0.003
868.02	0.001
868.19	0.003
868.36	0.005
868.53	0.001
868.70	-0.000
868.87	-0.001
869.04	0.006
869.21	0.007
869.38	0.004
869.55	0.003
869.72	0.006
869.89	0.013
870.06	0.010
870.24	0.010
870.41	0.015
870.58	0.012
870.75	0.014
870.92	0.010
871.09	0.008
871.26	0.010
871.43	0.013
871.60	0.019
871.77	0.012
871.94	0.018
872.11	0.017
872.28	0.011
872.45	0.013
872.62	0.011
872.79	0.011
872.96	0.012
873.13	0.006
873.30	-0.001
873.47	-0.001
873.64	0.001
873.81	-0.002
873.98	0.004
874.15	0.013
874.32	0.007
874.49	0.009
874.66	0.011
874.83	0.015
875.00	0.015
875.17	0.015
875.34	0.010
875.51	0.010
875.68	0.009
875.85	0.001
876.02	-0.001
876.19	0.004
876.36	0.007
876.53	0.009
876.70	0.010
876.87	0.016
877.04	0.019
877.21	0.021
877.38	0.020
877.55	0.023
877.72	0.028
877.89	0.025
878.06	0.017
878.23	0.011
878.39	0.008
878.56	0.004
878.73	0.003
878.90	0.002
879.07	-0.001
879.24	0.003
879.41	0.003
879.58	0.007
879.75	0.009
879.92	0.016
880.09	0.014
880.26	0.017
880.43	0.014
880.60	0.014
880.77	0.020
880.94	0.028
881.11	0.025
881.27	0.027
881.44	0.019
881.61	0.019
881.78	0.022
881.95	0.025
882.12	0.020
882.29	0.021
882.46	0.014
882.63	0.014
882.80	0.010
882.97	0.005
883.14	0.002
883.30	0.005
883.47	0.006
883.64	-0.004
883.81	-0.003
883.98	0.004
884.15	0.005
884.32	0.018
884.49	0.017
884.66	0.013
884.82	0.020
884.99	0.017
885.16	0.017
885.33	0.013
885.50	0.017
885.67	0.024
885.84	0.030
886.01	0.027
886.17	0.020
886.34	0.017
886.51	0.024
886.68	0.020
886.85	0.022
887.02	0.031
887.19	0.032
887.36	0.029
887.52	0.019
887.69	0.013
887.86	0.018
888.03	0.013
888.20	0.010
888.37	0.006
888.54	0.009
888.70	0.008
888.87	-0.004
889.04	-0.002
889.21	0.002
889.38	0.014
889.55	0.012
889.71	0.014
889.88	-0.025
890.05	-0.046
890.22	0.094
890.39	0.021
>>>>>End Processed Spectral Data<<<<<
