SpectraSuite Data File
++++++++++++++++++++++++++++++++++++
Date: Mon Jun 15 09:30:39 PDT 2015
User: introlabs
Dark Spectrum Present: Yes
Reference Spectrum Present: Yes
Number of Sampled Component Spectra: 1
Spectrometers: USB4H08886
Integration Time (usec): 44366 (USB4H08886)
Spectra Averaged: 20 (USB4H08886)
Boxcar Smoothing: 5 (USB4H08886)
Correct for Electrical Dark: Yes (USB4H08886)
Strobe/Lamp Enabled: No (USB4H08886)
Correct for Detector Non-linearity: Yes (USB4H08886)
Correct for Stray Light: Yes (USB4H08886)
Number of Pixels in Processed Spectrum: 3648
>>>>>Begin Processed Spectral Data<<<<<
178.14	-0.000
178.36	-0.000
178.57	-0.000
178.79	-0.000
179.01	-0.859
179.22	-0.000
179.44	-0.000
179.65	-0.224
179.87	0.363
180.08	0.444
180.30	0.586
180.52	0.145
180.73	0.259
180.95	0.265
181.16	0.206
181.38	0.148
181.59	0.130
181.81	0.110
182.03	0.124
182.24	0.123
182.46	0.128
182.67	0.114
182.89	0.119
183.10	0.113
183.32	0.106
183.54	0.093
183.75	0.091
183.97	0.095
184.18	0.090
184.40	0.096
184.61	0.101
184.83	0.102
185.04	0.095
185.26	0.093
185.48	0.082
185.69	0.085
185.91	0.087
186.12	0.084
186.34	0.094
186.55	0.083
186.77	0.086
186.98	0.076
187.20	0.064
187.42	0.078
187.63	0.084
187.85	0.094
188.06	0.100
188.28	0.105
188.49	0.112
188.71	0.090
188.92	0.089
189.14	0.074
189.36	0.075
189.57	0.078
189.79	0.065
190.00	0.055
190.22	0.058
190.43	0.056
190.65	0.043
190.86	0.049
191.08	0.064
191.29	0.069
191.51	0.074
191.72	0.070
191.94	0.077
192.16	0.081
192.37	0.089
192.59	0.086
192.80	0.079
193.02	0.092
193.23	0.086
193.45	0.071
193.66	0.067
193.88	0.072
194.09	0.079
194.31	0.082
194.52	0.080
194.74	0.079
194.95	0.077
195.17	0.084
195.38	0.081
195.60	0.077
195.81	0.090
196.03	0.094
196.25	0.095
196.46	0.089
196.68	0.089
196.89	0.091
197.11	0.093
197.32	0.088
197.54	0.084
197.75	0.094
197.97	0.100
198.18	0.086
198.40	0.095
198.61	0.082
198.83	0.078
199.04	0.072
199.26	0.067
199.47	0.061
199.69	0.071
199.90	0.079
200.12	0.061
200.33	0.065
200.55	0.072
200.76	0.060
200.98	0.062
201.19	0.061
201.41	0.058
201.62	0.064
201.84	0.066
202.05	0.064
202.27	0.059
202.48	0.067
202.70	0.069
202.91	0.069
203.13	0.076
203.34	0.074
203.56	0.080
203.77	0.090
203.99	0.081
204.20	0.081
204.42	0.080
204.63	0.087
204.85	0.086
205.06	0.078
205.28	0.085
205.49	0.083
205.71	0.094
205.92	0.095
206.14	0.086
206.35	0.102
206.56	0.103
206.78	0.101
206.99	0.091
207.21	0.096
207.42	0.094
207.64	0.085
207.85	0.080
208.07	0.082
208.28	0.082
208.50	0.086
208.71	0.085
208.93	0.085
209.14	0.090
209.36	0.091
209.57	0.088
209.79	0.099
210.00	0.102
210.22	0.111
210.43	0.107
210.64	0.106
210.86	0.100
211.07	0.088
211.29	0.084
211.50	0.083
211.72	0.080
211.93	0.088
212.15	0.079
212.36	0.078
212.58	0.082
212.79	0.081
213.01	0.075
213.22	0.081
213.43	0.088
213.65	0.091
213.86	0.087
214.08	0.098
214.29	0.090
214.51	0.094
214.72	0.091
214.94	0.084
215.15	0.083
215.36	0.087
215.58	0.087
215.79	0.086
216.01	0.084
216.22	0.094
216.44	0.086
216.65	0.089
216.87	0.086
217.08	0.086
217.29	0.094
217.51	0.097
217.72	0.102
217.94	0.104
218.15	0.108
218.37	0.110
218.58	0.101
218.80	0.108
219.01	0.103
219.22	0.101
219.44	0.110
219.65	0.107
219.87	0.105
220.08	0.099
220.30	0.093
220.51	0.087
220.72	0.083
220.94	0.082
221.15	0.079
221.37	0.082
221.58	0.086
221.79	0.086
222.01	0.078
222.22	0.078
222.44	0.080
222.65	0.084
222.87	0.086
223.08	0.086
223.29	0.083
223.51	0.083
223.72	0.080
223.94	0.079
224.15	0.074
224.36	0.078
224.58	0.075
224.79	0.083
225.01	0.079
225.22	0.077
225.44	0.083
225.65	0.090
225.86	0.095
226.08	0.095
226.29	0.093
226.51	0.097
226.72	0.101
226.93	0.103
227.15	0.093
227.36	0.094
227.58	0.095
227.79	0.097
228.00	0.092
228.22	0.085
228.43	0.088
228.65	0.092
228.86	0.085
229.07	0.081
229.29	0.083
229.50	0.084
229.72	0.086
229.93	0.086
230.14	0.080
230.36	0.081
230.57	0.079
230.78	0.078
231.00	0.075
231.21	0.074
231.43	0.073
231.64	0.070
231.85	0.073
232.07	0.074
232.28	0.073
232.50	0.073
232.71	0.072
232.92	0.072
233.14	0.072
233.35	0.075
233.56	0.076
233.78	0.075
233.99	0.076
234.21	0.075
234.42	0.076
234.63	0.077
234.85	0.079
235.06	0.080
235.27	0.080
235.49	0.080
235.70	0.077
235.91	0.076
236.13	0.078
236.34	0.075
236.56	0.076
236.77	0.076
236.98	0.076
237.20	0.074
237.41	0.075
237.62	0.078
237.84	0.078
238.05	0.080
238.26	0.079
238.48	0.080
238.69	0.081
238.91	0.081
239.12	0.081
239.33	0.081
239.55	0.083
239.76	0.084
239.97	0.084
240.19	0.085
240.40	0.085
240.61	0.087
240.83	0.087
241.04	0.088
241.25	0.088
241.47	0.088
241.68	0.090
241.89	0.091
242.11	0.091
242.32	0.091
242.53	0.090
242.75	0.091
242.96	0.092
243.17	0.093
243.39	0.094
243.60	0.095
243.81	0.095
244.03	0.095
244.24	0.095
244.45	0.096
244.67	0.097
244.88	0.098
245.09	0.099
245.31	0.100
245.52	0.100
245.73	0.099
245.95	0.100
246.16	0.101
246.37	0.101
246.59	0.102
246.80	0.102
247.01	0.102
247.23	0.102
247.44	0.102
247.65	0.102
247.87	0.102
248.08	0.103
248.29	0.103
248.51	0.103
248.72	0.104
248.93	0.104
249.15	0.104
249.36	0.104
249.57	0.104
249.78	0.105
250.00	0.105
250.21	0.105
250.42	0.105
250.64	0.105
250.85	0.106
251.06	0.106
251.28	0.106
251.49	0.105
251.70	0.105
251.92	0.106
252.13	0.106
252.34	0.106
252.55	0.106
252.77	0.106
252.98	0.106
253.19	0.105
253.41	0.106
253.62	0.106
253.83	0.107
254.05	0.106
254.26	0.106
254.47	0.106
254.68	0.106
254.90	0.106
255.11	0.107
255.32	0.107
255.54	0.106
255.75	0.106
255.96	0.106
256.17	0.106
256.39	0.106
256.60	0.106
256.81	0.106
257.03	0.106
257.24	0.106
257.45	0.106
257.66	0.106
257.88	0.105
258.09	0.105
258.30	0.105
258.51	0.104
258.73	0.104
258.94	0.103
259.15	0.103
259.37	0.103
259.58	0.102
259.79	0.102
260.00	0.102
260.22	0.103
260.43	0.102
260.64	0.102
260.85	0.102
261.07	0.102
261.28	0.101
261.49	0.101
261.71	0.101
261.92	0.101
262.13	0.100
262.34	0.100
262.56	0.099
262.77	0.099
262.98	0.099
263.19	0.099
263.41	0.098
263.62	0.098
263.83	0.097
264.04	0.097
264.26	0.096
264.47	0.096
264.68	0.096
264.89	0.096
265.11	0.095
265.32	0.095
265.53	0.095
265.74	0.095
265.96	0.094
266.17	0.094
266.38	0.094
266.59	0.094
266.81	0.094
267.02	0.093
267.23	0.093
267.44	0.092
267.65	0.092
267.87	0.091
268.08	0.091
268.29	0.090
268.50	0.090
268.72	0.090
268.93	0.090
269.14	0.089
269.35	0.089
269.57	0.089
269.78	0.089
269.99	0.088
270.20	0.088
270.41	0.088
270.63	0.087
270.84	0.087
271.05	0.086
271.26	0.085
271.48	0.085
271.69	0.085
271.90	0.085
272.11	0.084
272.32	0.084
272.54	0.083
272.75	0.083
272.96	0.083
273.17	0.083
273.39	0.083
273.60	0.083
273.81	0.083
274.02	0.082
274.23	0.082
274.45	0.082
274.66	0.082
274.87	0.082
275.08	0.082
275.29	0.081
275.51	0.081
275.72	0.081
275.93	0.081
276.14	0.081
276.35	0.081
276.57	0.081
276.78	0.080
276.99	0.080
277.20	0.080
277.41	0.081
277.63	0.081
277.84	0.081
278.05	0.081
278.26	0.081
278.47	0.081
278.69	0.080
278.90	0.081
279.11	0.081
279.32	0.081
279.53	0.081
279.74	0.081
279.96	0.081
280.17	0.082
280.38	0.082
280.59	0.082
280.80	0.083
281.02	0.083
281.23	0.083
281.44	0.083
281.65	0.083
281.86	0.083
282.07	0.083
282.29	0.083
282.50	0.083
282.71	0.083
282.92	0.084
283.13	0.083
283.35	0.083
283.56	0.083
283.77	0.083
283.98	0.084
284.19	0.084
284.40	0.084
284.62	0.084
284.83	0.085
285.04	0.085
285.25	0.085
285.46	0.086
285.67	0.086
285.88	0.087
286.10	0.088
286.31	0.088
286.52	0.089
286.73	0.089
286.94	0.090
287.15	0.091
287.37	0.091
287.58	0.092
287.79	0.092
288.00	0.093
288.21	0.093
288.42	0.094
288.63	0.094
288.85	0.094
289.06	0.095
289.27	0.095
289.48	0.095
289.69	0.096
289.90	0.096
290.11	0.097
290.33	0.097
290.54	0.097
290.75	0.098
290.96	0.098
291.17	0.098
291.38	0.099
291.59	0.099
291.81	0.099
292.02	0.099
292.23	0.099
292.44	0.100
292.65	0.100
292.86	0.100
293.07	0.100
293.28	0.100
293.50	0.100
293.71	0.100
293.92	0.100
294.13	0.101
294.34	0.101
294.55	0.101
294.76	0.101
294.97	0.101
295.19	0.101
295.40	0.101
295.61	0.101
295.82	0.101
296.03	0.101
296.24	0.101
296.45	0.100
296.66	0.100
296.87	0.100
297.09	0.100
297.30	0.100
297.51	0.100
297.72	0.100
297.93	0.100
298.14	0.100
298.35	0.100
298.56	0.100
298.77	0.100
298.99	0.100
299.20	0.100
299.41	0.100
299.62	0.100
299.83	0.100
300.04	0.100
300.25	0.100
300.46	0.100
300.67	0.100
300.88	0.100
301.10	0.100
301.31	0.100
301.52	0.100
301.73	0.100
301.94	0.100
302.15	0.099
302.36	0.099
302.57	0.099
302.78	0.099
302.99	0.099
303.20	0.099
303.41	0.099
303.63	0.099
303.84	0.099
304.05	0.098
304.26	0.098
304.47	0.099
304.68	0.098
304.89	0.098
305.10	0.098
305.31	0.098
305.52	0.098
305.73	0.098
305.94	0.098
306.15	0.098
306.37	0.098
306.58	0.098
306.79	0.098
307.00	0.098
307.21	0.098
307.42	0.098
307.63	0.098
307.84	0.098
308.05	0.098
308.26	0.097
308.47	0.098
308.68	0.098
308.89	0.097
309.10	0.097
309.31	0.097
309.52	0.097
309.73	0.097
309.95	0.097
310.16	0.096
310.37	0.096
310.58	0.096
310.79	0.096
311.00	0.096
311.21	0.096
311.42	0.096
311.63	0.096
311.84	0.096
312.05	0.096
312.26	0.096
312.47	0.096
312.68	0.096
312.89	0.096
313.10	0.096
313.31	0.096
313.52	0.096
313.73	0.096
313.94	0.096
314.15	0.096
314.36	0.096
314.57	0.096
314.78	0.096
314.99	0.096
315.21	0.096
315.42	0.096
315.63	0.096
315.84	0.095
316.05	0.095
316.26	0.095
316.47	0.095
316.68	0.095
316.89	0.095
317.10	0.095
317.31	0.095
317.52	0.095
317.73	0.095
317.94	0.095
318.15	0.095
318.36	0.095
318.57	0.095
318.78	0.095
318.99	0.095
319.20	0.095
319.41	0.095
319.62	0.095
319.83	0.095
320.04	0.095
320.25	0.094
320.46	0.094
320.67	0.094
320.88	0.094
321.09	0.094
321.30	0.094
321.51	0.094
321.72	0.094
321.93	0.094
322.14	0.094
322.35	0.094
322.56	0.094
322.77	0.094
322.98	0.094
323.19	0.094
323.40	0.094
323.61	0.094
323.82	0.094
324.03	0.094
324.24	0.094
324.45	0.094
324.66	0.093
324.87	0.093
325.08	0.093
325.29	0.093
325.50	0.093
325.71	0.093
325.92	0.093
326.13	0.093
326.34	0.093
326.55	0.093
326.76	0.093
326.97	0.093
327.18	0.093
327.39	0.093
327.60	0.093
327.80	0.093
328.01	0.092
328.22	0.092
328.43	0.092
328.64	0.093
328.85	0.093
329.06	0.092
329.27	0.092
329.48	0.092
329.69	0.092
329.90	0.092
330.11	0.092
330.32	0.092
330.53	0.092
330.74	0.092
330.95	0.092
331.16	0.092
331.37	0.092
331.58	0.092
331.79	0.092
332.00	0.092
332.21	0.092
332.42	0.092
332.63	0.092
332.83	0.092
333.04	0.092
333.25	0.092
333.46	0.092
333.67	0.091
333.88	0.091
334.09	0.091
334.30	0.091
334.51	0.091
334.72	0.091
334.93	0.091
335.14	0.091
335.35	0.091
335.56	0.091
335.77	0.091
335.98	0.091
336.18	0.090
336.39	0.091
336.60	0.091
336.81	0.090
337.02	0.090
337.23	0.090
337.44	0.090
337.65	0.090
337.86	0.090
338.07	0.090
338.28	0.090
338.49	0.090
338.70	0.090
338.91	0.090
339.11	0.090
339.32	0.090
339.53	0.090
339.74	0.090
339.95	0.090
340.16	0.090
340.37	0.090
340.58	0.090
340.79	0.090
341.00	0.090
341.21	0.090
341.41	0.089
341.62	0.089
341.83	0.089
342.04	0.089
342.25	0.089
342.46	0.089
342.67	0.089
342.88	0.089
343.09	0.089
343.30	0.089
343.50	0.088
343.71	0.088
343.92	0.089
344.13	0.089
344.34	0.089
344.55	0.088
344.76	0.088
344.97	0.088
345.18	0.088
345.38	0.088
345.59	0.088
345.80	0.088
346.01	0.088
346.22	0.088
346.43	0.088
346.64	0.088
346.85	0.088
347.06	0.088
347.26	0.088
347.47	0.088
347.68	0.088
347.89	0.088
348.10	0.088
348.31	0.088
348.52	0.088
348.73	0.088
348.93	0.088
349.14	0.088
349.35	0.087
349.56	0.087
349.77	0.087
349.98	0.087
350.19	0.087
350.39	0.087
350.60	0.087
350.81	0.087
351.02	0.087
351.23	0.087
351.44	0.087
351.65	0.087
351.86	0.087
352.06	0.087
352.27	0.087
352.48	0.087
352.69	0.087
352.90	0.087
353.11	0.087
353.31	0.087
353.52	0.087
353.73	0.087
353.94	0.087
354.15	0.087
354.36	0.087
354.57	0.087
354.77	0.087
354.98	0.087
355.19	0.087
355.40	0.087
355.61	0.087
355.82	0.087
356.02	0.087
356.23	0.087
356.44	0.086
356.65	0.086
356.86	0.086
357.07	0.086
357.27	0.086
357.48	0.086
357.69	0.086
357.90	0.086
358.11	0.086
358.32	0.086
358.52	0.086
358.73	0.086
358.94	0.086
359.15	0.086
359.36	0.086
359.56	0.086
359.77	0.086
359.98	0.086
360.19	0.086
360.40	0.086
360.61	0.086
360.81	0.086
361.02	0.086
361.23	0.086
361.44	0.086
361.65	0.086
361.85	0.086
362.06	0.086
362.27	0.086
362.48	0.086
362.69	0.086
362.89	0.086
363.10	0.086
363.31	0.086
363.52	0.086
363.73	0.086
363.93	0.086
364.14	0.086
364.35	0.085
364.56	0.085
364.77	0.085
364.97	0.085
365.18	0.085
365.39	0.085
365.60	0.085
365.81	0.085
366.01	0.085
366.22	0.085
366.43	0.085
366.64	0.085
366.84	0.085
367.05	0.085
367.26	0.085
367.47	0.085
367.68	0.085
367.88	0.085
368.09	0.085
368.30	0.085
368.51	0.085
368.71	0.085
368.92	0.085
369.13	0.085
369.34	0.085
369.55	0.084
369.75	0.084
369.96	0.084
370.17	0.084
370.38	0.084
370.58	0.084
370.79	0.084
371.00	0.084
371.21	0.084
371.41	0.084
371.62	0.084
371.83	0.084
372.04	0.084
372.24	0.084
372.45	0.084
372.66	0.084
372.87	0.084
373.07	0.084
373.28	0.084
373.49	0.084
373.70	0.084
373.90	0.084
374.11	0.084
374.32	0.084
374.53	0.083
374.73	0.083
374.94	0.083
375.15	0.083
375.36	0.084
375.56	0.083
375.77	0.083
375.98	0.083
376.19	0.083
376.39	0.083
376.60	0.083
376.81	0.083
377.02	0.083
377.22	0.083
377.43	0.083
377.64	0.083
377.84	0.083
378.05	0.083
378.26	0.083
378.47	0.083
378.67	0.083
378.88	0.083
379.09	0.083
379.30	0.083
379.50	0.082
379.71	0.082
379.92	0.082
380.12	0.082
380.33	0.082
380.54	0.082
380.75	0.082
380.95	0.082
381.16	0.082
381.37	0.082
381.57	0.082
381.78	0.082
381.99	0.082
382.20	0.082
382.40	0.083
382.61	0.082
382.82	0.082
383.02	0.082
383.23	0.082
383.44	0.082
383.64	0.082
383.85	0.082
384.06	0.082
384.27	0.082
384.47	0.082
384.68	0.082
384.89	0.082
385.09	0.082
385.30	0.082
385.51	0.082
385.71	0.082
385.92	0.082
386.13	0.082
386.33	0.082
386.54	0.081
386.75	0.082
386.95	0.081
387.16	0.081
387.37	0.081
387.58	0.081
387.78	0.081
387.99	0.081
388.20	0.081
388.40	0.081
388.61	0.081
388.82	0.081
389.02	0.081
389.23	0.081
389.44	0.081
389.64	0.081
389.85	0.081
390.06	0.081
390.26	0.081
390.47	0.081
390.68	0.081
390.88	0.081
391.09	0.081
391.30	0.081
391.50	0.081
391.71	0.080
391.92	0.080
392.12	0.080
392.33	0.080
392.53	0.080
392.74	0.081
392.95	0.081
393.15	0.081
393.36	0.081
393.57	0.080
393.77	0.080
393.98	0.080
394.19	0.080
394.39	0.080
394.60	0.080
394.81	0.080
395.01	0.080
395.22	0.080
395.43	0.080
395.63	0.080
395.84	0.080
396.04	0.080
396.25	0.080
396.46	0.080
396.66	0.080
396.87	0.080
397.08	0.080
397.28	0.080
397.49	0.080
397.69	0.080
397.90	0.080
398.11	0.080
398.31	0.080
398.52	0.080
398.73	0.080
398.93	0.079
399.14	0.079
399.34	0.079
399.55	0.079
399.76	0.079
399.96	0.079
400.17	0.079
400.37	0.079
400.58	0.079
400.79	0.079
400.99	0.079
401.20	0.079
401.41	0.079
401.61	0.079
401.82	0.079
402.02	0.079
402.23	0.079
402.44	0.079
402.64	0.079
402.85	0.079
403.05	0.079
403.26	0.079
403.47	0.079
403.67	0.078
403.88	0.078
404.08	0.078
404.29	0.078
404.50	0.078
404.70	0.078
404.91	0.078
405.11	0.078
405.32	0.078
405.52	0.078
405.73	0.078
405.94	0.078
406.14	0.078
406.35	0.078
406.55	0.078
406.76	0.078
406.97	0.078
407.17	0.078
407.38	0.078
407.58	0.078
407.79	0.078
407.99	0.078
408.20	0.078
408.41	0.078
408.61	0.078
408.82	0.078
409.02	0.077
409.23	0.077
409.43	0.077
409.64	0.077
409.84	0.078
410.05	0.078
410.26	0.078
410.46	0.077
410.67	0.077
410.87	0.077
411.08	0.077
411.28	0.077
411.49	0.077
411.69	0.077
411.90	0.077
412.11	0.077
412.31	0.077
412.52	0.077
412.72	0.077
412.93	0.077
413.13	0.077
413.34	0.077
413.54	0.077
413.75	0.077
413.95	0.077
414.16	0.077
414.37	0.077
414.57	0.077
414.78	0.077
414.98	0.077
415.19	0.077
415.39	0.077
415.60	0.077
415.80	0.077
416.01	0.077
416.21	0.077
416.42	0.077
416.62	0.076
416.83	0.076
417.03	0.076
417.24	0.076
417.44	0.076
417.65	0.076
417.86	0.076
418.06	0.076
418.27	0.076
418.47	0.075
418.68	0.075
418.88	0.075
419.09	0.075
419.29	0.075
419.50	0.075
419.70	0.075
419.91	0.075
420.11	0.075
420.32	0.075
420.52	0.075
420.73	0.075
420.93	0.075
421.14	0.075
421.34	0.075
421.55	0.075
421.75	0.075
421.96	0.075
422.16	0.075
422.37	0.075
422.57	0.075
422.78	0.075
422.98	0.075
423.19	0.075
423.39	0.075
423.60	0.075
423.80	0.075
424.01	0.075
424.21	0.076
424.42	0.076
424.62	0.076
424.83	0.076
425.03	0.075
425.23	0.075
425.44	0.075
425.64	0.075
425.85	0.075
426.05	0.075
426.26	0.075
426.46	0.075
426.67	0.075
426.87	0.075
427.08	0.075
427.28	0.074
427.49	0.074
427.69	0.074
427.90	0.074
428.10	0.074
428.31	0.074
428.51	0.074
428.71	0.074
428.92	0.074
429.12	0.074
429.33	0.074
429.53	0.074
429.74	0.074
429.94	0.074
430.15	0.074
430.35	0.074
430.56	0.074
430.76	0.074
430.96	0.074
431.17	0.074
431.37	0.074
431.58	0.075
431.78	0.075
431.99	0.075
432.19	0.075
432.40	0.075
432.60	0.075
432.80	0.075
433.01	0.075
433.21	0.074
433.42	0.074
433.62	0.074
433.83	0.074
434.03	0.074
434.23	0.074
434.44	0.074
434.64	0.074
434.85	0.074
435.05	0.074
435.26	0.074
435.46	0.074
435.66	0.073
435.87	0.074
436.07	0.073
436.28	0.073
436.48	0.073
436.69	0.073
436.89	0.073
437.09	0.073
437.30	0.073
437.50	0.073
437.71	0.073
437.91	0.073
438.11	0.073
438.32	0.073
438.52	0.073
438.73	0.073
438.93	0.073
439.13	0.073
439.34	0.073
439.54	0.073
439.75	0.073
439.95	0.073
440.15	0.073
440.36	0.073
440.56	0.073
440.77	0.073
440.97	0.073
441.17	0.073
441.38	0.073
441.58	0.072
441.79	0.072
441.99	0.072
442.19	0.072
442.40	0.072
442.60	0.072
442.81	0.072
443.01	0.072
443.21	0.072
443.42	0.072
443.62	0.072
443.82	0.072
444.03	0.072
444.23	0.072
444.44	0.072
444.64	0.072
444.84	0.072
445.05	0.072
445.25	0.072
445.45	0.072
445.66	0.072
445.86	0.072
446.06	0.072
446.27	0.072
446.47	0.072
446.68	0.072
446.88	0.072
447.08	0.072
447.29	0.072
447.49	0.072
447.69	0.072
447.90	0.072
448.10	0.072
448.30	0.072
448.51	0.072
448.71	0.072
448.91	0.072
449.12	0.072
449.32	0.072
449.52	0.072
449.73	0.072
449.93	0.072
450.14	0.071
450.34	0.071
450.54	0.071
450.75	0.071
450.95	0.071
451.15	0.071
451.36	0.071
451.56	0.071
451.76	0.071
451.97	0.071
452.17	0.071
452.37	0.071
452.58	0.071
452.78	0.071
452.98	0.071
453.19	0.071
453.39	0.071
453.59	0.071
453.79	0.071
454.00	0.071
454.20	0.071
454.40	0.071
454.61	0.071
454.81	0.071
455.01	0.071
455.22	0.071
455.42	0.071
455.62	0.071
455.83	0.071
456.03	0.071
456.23	0.071
456.44	0.071
456.64	0.071
456.84	0.071
457.04	0.071
457.25	0.071
457.45	0.071
457.65	0.071
457.86	0.071
458.06	0.071
458.26	0.070
458.47	0.070
458.67	0.070
458.87	0.070
459.07	0.070
459.28	0.070
459.48	0.070
459.68	0.070
459.89	0.070
460.09	0.070
460.29	0.070
460.49	0.070
460.70	0.070
460.90	0.070
461.10	0.070
461.31	0.070
461.51	0.070
461.71	0.070
461.91	0.070
462.12	0.070
462.32	0.070
462.52	0.070
462.72	0.070
462.93	0.070
463.13	0.070
463.33	0.069
463.53	0.069
463.74	0.069
463.94	0.069
464.14	0.069
464.35	0.069
464.55	0.069
464.75	0.069
464.95	0.069
465.16	0.069
465.36	0.069
465.56	0.069
465.76	0.069
465.97	0.069
466.17	0.069
466.37	0.069
466.57	0.069
466.78	0.069
466.98	0.069
467.18	0.069
467.38	0.069
467.59	0.070
467.79	0.070
467.99	0.070
468.19	0.070
468.39	0.070
468.60	0.069
468.80	0.069
469.00	0.069
469.20	0.069
469.41	0.069
469.61	0.069
469.81	0.069
470.01	0.069
470.22	0.069
470.42	0.069
470.62	0.069
470.82	0.069
471.02	0.069
471.23	0.069
471.43	0.069
471.63	0.069
471.83	0.069
472.04	0.069
472.24	0.068
472.44	0.068
472.64	0.068
472.84	0.068
473.05	0.068
473.25	0.068
473.45	0.068
473.65	0.068
473.85	0.068
474.06	0.068
474.26	0.067
474.46	0.068
474.66	0.068
474.86	0.068
475.07	0.068
475.27	0.068
475.47	0.068
475.67	0.068
475.87	0.068
476.08	0.068
476.28	0.068
476.48	0.068
476.68	0.068
476.88	0.069
477.09	0.069
477.29	0.069
477.49	0.069
477.69	0.068
477.89	0.068
478.09	0.068
478.30	0.068
478.50	0.068
478.70	0.068
478.90	0.067
479.10	0.067
479.31	0.067
479.51	0.067
479.71	0.067
479.91	0.067
480.11	0.067
480.31	0.067
480.52	0.067
480.72	0.067
480.92	0.067
481.12	0.067
481.32	0.067
481.52	0.067
481.72	0.067
481.93	0.067
482.13	0.067
482.33	0.067
482.53	0.067
482.73	0.067
482.93	0.067
483.14	0.067
483.34	0.066
483.54	0.066
483.74	0.066
483.94	0.066
484.14	0.066
484.34	0.066
484.55	0.066
484.75	0.066
484.95	0.066
485.15	0.066
485.35	0.066
485.55	0.067
485.75	0.067
485.96	0.067
486.16	0.067
486.36	0.067
486.56	0.067
486.76	0.067
486.96	0.067
487.16	0.067
487.36	0.067
487.57	0.067
487.77	0.067
487.97	0.067
488.17	0.067
488.37	0.067
488.57	0.067
488.77	0.067
488.97	0.067
489.18	0.067
489.38	0.067
489.58	0.067
489.78	0.067
489.98	0.067
490.18	0.067
490.38	0.067
490.58	0.067
490.78	0.067
490.98	0.067
491.19	0.067
491.39	0.067
491.59	0.067
491.79	0.067
491.99	0.066
492.19	0.066
492.39	0.066
492.59	0.066
492.79	0.066
492.99	0.066
493.20	0.066
493.40	0.066
493.60	0.066
493.80	0.066
494.00	0.066
494.20	0.066
494.40	0.066
494.60	0.066
494.80	0.066
495.00	0.066
495.20	0.066
495.40	0.066
495.61	0.066
495.81	0.066
496.01	0.066
496.21	0.066
496.41	0.066
496.61	0.066
496.81	0.067
497.01	0.066
497.21	0.067
497.41	0.067
497.61	0.067
497.81	0.067
498.01	0.067
498.21	0.067
498.41	0.067
498.61	0.067
498.82	0.067
499.02	0.067
499.22	0.067
499.42	0.066
499.62	0.066
499.82	0.066
500.02	0.066
500.22	0.066
500.42	0.066
500.62	0.066
500.82	0.066
501.02	0.066
501.22	0.066
501.42	0.066
501.62	0.066
501.82	0.066
502.02	0.066
502.22	0.066
502.42	0.066
502.62	0.066
502.82	0.066
503.02	0.066
503.22	0.066
503.42	0.066
503.63	0.066
503.83	0.066
504.03	0.066
504.23	0.066
504.43	0.066
504.63	0.066
504.83	0.066
505.03	0.066
505.23	0.066
505.43	0.066
505.63	0.066
505.83	0.066
506.03	0.066
506.23	0.066
506.43	0.066
506.63	0.066
506.83	0.066
507.03	0.066
507.23	0.066
507.43	0.066
507.63	0.066
507.83	0.066
508.03	0.066
508.23	0.066
508.43	0.066
508.63	0.066
508.83	0.066
509.03	0.066
509.23	0.066
509.43	0.066
509.63	0.066
509.83	0.066
510.03	0.066
510.23	0.066
510.43	0.066
510.63	0.066
510.83	0.066
511.03	0.066
511.23	0.066
511.43	0.066
511.63	0.065
511.83	0.066
512.03	0.066
512.22	0.066
512.42	0.066
512.62	0.066
512.82	0.066
513.02	0.066
513.22	0.066
513.42	0.066
513.62	0.066
513.82	0.066
514.02	0.066
514.22	0.066
514.42	0.066
514.62	0.066
514.82	0.066
515.02	0.066
515.22	0.066
515.42	0.066
515.62	0.066
515.82	0.066
516.02	0.066
516.22	0.066
516.42	0.066
516.62	0.066
516.82	0.065
517.01	0.066
517.21	0.066
517.41	0.066
517.61	0.066
517.81	0.066
518.01	0.066
518.21	0.066
518.41	0.066
518.61	0.066
518.81	0.066
519.01	0.066
519.21	0.066
519.41	0.066
519.61	0.065
519.81	0.065
520.00	0.065
520.20	0.065
520.40	0.065
520.60	0.065
520.80	0.065
521.00	0.065
521.20	0.065
521.40	0.065
521.60	0.065
521.80	0.065
522.00	0.066
522.20	0.066
522.39	0.065
522.59	0.065
522.79	0.065
522.99	0.065
523.19	0.065
523.39	0.065
523.59	0.065
523.79	0.065
523.99	0.065
524.19	0.065
524.38	0.065
524.58	0.065
524.78	0.065
524.98	0.065
525.18	0.065
525.38	0.065
525.58	0.065
525.78	0.065
525.98	0.065
526.18	0.065
526.37	0.065
526.57	0.064
526.77	0.064
526.97	0.064
527.17	0.064
527.37	0.064
527.57	0.064
527.77	0.064
527.96	0.064
528.16	0.064
528.36	0.064
528.56	0.064
528.76	0.064
528.96	0.065
529.16	0.065
529.36	0.065
529.55	0.065
529.75	0.064
529.95	0.065
530.15	0.064
530.35	0.064
530.55	0.064
530.75	0.064
530.94	0.065
531.14	0.064
531.34	0.064
531.54	0.064
531.74	0.064
531.94	0.064
532.13	0.064
532.33	0.064
532.53	0.064
532.73	0.064
532.93	0.064
533.13	0.064
533.33	0.064
533.52	0.064
533.72	0.064
533.92	0.064
534.12	0.064
534.32	0.064
534.52	0.064
534.71	0.064
534.91	0.064
535.11	0.064
535.31	0.064
535.51	0.064
535.71	0.064
535.90	0.064
536.10	0.064
536.30	0.064
536.50	0.064
536.70	0.064
536.89	0.064
537.09	0.064
537.29	0.064
537.49	0.064
537.69	0.064
537.89	0.064
538.08	0.064
538.28	0.064
538.48	0.064
538.68	0.064
538.88	0.064
539.07	0.063
539.27	0.064
539.47	0.064
539.67	0.064
539.87	0.064
540.06	0.064
540.26	0.064
540.46	0.064
540.66	0.064
540.86	0.064
541.05	0.064
541.25	0.064
541.45	0.064
541.65	0.064
541.84	0.064
542.04	0.064
542.24	0.064
542.44	0.064
542.64	0.064
542.83	0.063
543.03	0.063
543.23	0.063
543.43	0.063
543.62	0.063
543.82	0.063
544.02	0.063
544.22	0.063
544.42	0.063
544.61	0.063
544.81	0.063
545.01	0.063
545.21	0.063
545.40	0.063
545.60	0.063
545.80	0.063
546.00	0.063
546.19	0.063
546.39	0.064
546.59	0.064
546.79	0.064
546.98	0.064
547.18	0.064
547.38	0.064
547.58	0.064
547.77	0.063
547.97	0.063
548.17	0.063
548.37	0.063
548.56	0.063
548.76	0.063
548.96	0.064
549.16	0.064
549.35	0.064
549.55	0.064
549.75	0.064
549.95	0.064
550.14	0.064
550.34	0.064
550.54	0.064
550.73	0.063
550.93	0.063
551.13	0.063
551.33	0.063
551.52	0.063
551.72	0.063
551.92	0.063
552.12	0.063
552.31	0.063
552.51	0.063
552.71	0.063
552.90	0.063
553.10	0.063
553.30	0.063
553.50	0.063
553.69	0.063
553.89	0.063
554.09	0.063
554.28	0.063
554.48	0.063
554.68	0.063
554.87	0.063
555.07	0.063
555.27	0.063
555.47	0.063
555.66	0.063
555.86	0.063
556.06	0.063
556.25	0.063
556.45	0.064
556.65	0.064
556.84	0.063
557.04	0.063
557.24	0.063
557.43	0.064
557.63	0.063
557.83	0.063
558.02	0.063
558.22	0.063
558.42	0.063
558.61	0.063
558.81	0.062
559.01	0.062
559.21	0.062
559.40	0.062
559.60	0.062
559.80	0.062
559.99	0.062
560.19	0.062
560.39	0.062
560.58	0.062
560.78	0.062
560.97	0.062
561.17	0.062
561.37	0.062
561.56	0.062
561.76	0.062
561.96	0.062
562.15	0.062
562.35	0.063
562.55	0.063
562.74	0.063
562.94	0.063
563.14	0.063
563.33	0.062
563.53	0.063
563.73	0.063
563.92	0.063
564.12	0.062
564.31	0.062
564.51	0.062
564.71	0.062
564.90	0.062
565.10	0.062
565.30	0.062
565.49	0.062
565.69	0.062
565.89	0.062
566.08	0.062
566.28	0.062
566.47	0.062
566.67	0.062
566.87	0.061
567.06	0.061
567.26	0.061
567.46	0.061
567.65	0.061
567.85	0.061
568.04	0.061
568.24	0.061
568.44	0.060
568.63	0.060
568.83	0.060
569.02	0.060
569.22	0.060
569.42	0.060
569.61	0.060
569.81	0.060
570.00	0.060
570.20	0.060
570.40	0.060
570.59	0.060
570.79	0.060
570.98	0.060
571.18	0.060
571.38	0.060
571.57	0.060
571.77	0.060
571.96	0.060
572.16	0.060
572.35	0.060
572.55	0.060
572.75	0.061
572.94	0.061
573.14	0.061
573.33	0.061
573.53	0.061
573.73	0.061
573.92	0.062
574.12	0.062
574.31	0.062
574.51	0.061
574.70	0.061
574.90	0.059
575.09	0.057
575.29	0.055
575.49	0.053
575.68	0.050
575.88	0.048
576.07	0.045
576.27	0.043
576.46	0.041
576.66	0.039
576.86	0.037
577.05	0.035
577.25	0.034
577.44	0.034
577.64	0.033
577.83	0.032
578.03	0.031
578.22	0.029
578.42	0.026
578.61	0.023
578.81	0.020
579.00	0.017
579.20	0.015
579.40	0.012
579.59	0.009
579.79	0.007
579.98	0.005
580.18	0.004
580.37	0.003
580.57	0.004
580.76	0.005
580.96	0.006
581.15	0.008
581.35	0.009
581.54	0.011
581.74	0.011
581.93	0.012
582.13	0.012
582.32	0.013
582.52	0.014
582.71	0.015
582.91	0.016
583.10	0.018
583.30	0.020
583.49	0.023
583.69	0.025
583.88	0.029
584.08	0.032
584.27	0.036
584.47	0.040
584.66	0.043
584.86	0.045
585.05	0.046
585.25	0.047
585.44	0.047
585.64	0.046
585.83	0.046
586.03	0.046
586.22	0.047
586.42	0.048
586.61	0.049
586.81	0.050
587.00	0.052
587.20	0.053
587.39	0.055
587.59	0.057
587.78	0.059
587.98	0.060
588.17	0.062
588.37	0.062
588.56	0.062
588.76	0.061
588.95	0.061
589.15	0.061
589.34	0.061
589.54	0.060
589.73	0.060
589.92	0.060
590.12	0.060
590.31	0.059
590.51	0.059
590.70	0.059
590.90	0.059
591.09	0.059
591.29	0.059
591.48	0.059
591.68	0.059
591.87	0.059
592.06	0.059
592.26	0.059
592.45	0.059
592.65	0.059
592.84	0.059
593.04	0.059
593.23	0.059
593.43	0.059
593.62	0.060
593.81	0.060
594.01	0.060
594.20	0.060
594.40	0.060
594.59	0.060
594.79	0.061
594.98	0.061
595.17	0.061
595.37	0.060
595.56	0.060
595.76	0.060
595.95	0.060
596.14	0.059
596.34	0.059
596.53	0.059
596.73	0.059
596.92	0.058
597.12	0.058
597.31	0.058
597.50	0.058
597.70	0.058
597.89	0.058
598.09	0.058
598.28	0.058
598.47	0.058
598.67	0.058
598.86	0.058
599.06	0.058
599.25	0.058
599.44	0.059
599.64	0.059
599.83	0.059
600.03	0.059
600.22	0.060
600.41	0.060
600.61	0.060
600.80	0.060
601.00	0.060
601.19	0.060
601.38	0.060
601.58	0.060
601.77	0.060
601.96	0.060
602.16	0.060
602.35	0.060
602.55	0.060
602.74	0.059
602.93	0.059
603.13	0.059
603.32	0.059
603.51	0.058
603.71	0.058
603.90	0.058
604.09	0.058
604.29	0.057
604.48	0.057
604.68	0.057
604.87	0.058
605.06	0.058
605.26	0.058
605.45	0.058
605.64	0.058
605.84	0.058
606.03	0.058
606.22	0.058
606.42	0.058
606.61	0.059
606.80	0.059
607.00	0.059
607.19	0.059
607.38	0.059
607.58	0.059
607.77	0.059
607.96	0.059
608.16	0.060
608.35	0.060
608.54	0.060
608.74	0.060
608.93	0.060
609.12	0.060
609.32	0.060
609.51	0.060
609.70	0.060
609.90	0.060
610.09	0.060
610.28	0.060
610.48	0.060
610.67	0.060
610.86	0.059
611.06	0.059
611.25	0.059
611.44	0.059
611.64	0.059
611.83	0.059
612.02	0.059
612.21	0.059
612.41	0.059
612.60	0.059
612.79	0.059
612.99	0.059
613.18	0.059
613.37	0.058
613.57	0.058
613.76	0.058
613.95	0.059
614.14	0.059
614.34	0.059
614.53	0.059
614.72	0.059
614.92	0.059
615.11	0.059
615.30	0.059
615.49	0.059
615.69	0.059
615.88	0.060
616.07	0.060
616.26	0.060
616.46	0.060
616.65	0.060
616.84	0.060
617.04	0.060
617.23	0.060
617.42	0.060
617.61	0.060
617.81	0.060
618.00	0.060
618.19	0.060
618.38	0.060
618.58	0.060
618.77	0.060
618.96	0.060
619.15	0.060
619.35	0.060
619.54	0.060
619.73	0.060
619.92	0.059
620.12	0.059
620.31	0.059
620.50	0.059
620.69	0.059
620.89	0.059
621.08	0.059
621.27	0.059
621.46	0.059
621.66	0.059
621.85	0.059
622.04	0.059
622.23	0.059
622.43	0.059
622.62	0.059
622.81	0.059
623.00	0.059
623.19	0.059
623.39	0.059
623.58	0.059
623.77	0.059
623.96	0.059
624.16	0.059
624.35	0.059
624.54	0.059
624.73	0.059
624.92	0.059
625.12	0.059
625.31	0.059
625.50	0.059
625.69	0.059
625.88	0.059
626.08	0.060
626.27	0.060
626.46	0.060
626.65	0.060
626.84	0.060
627.04	0.060
627.23	0.060
627.42	0.060
627.61	0.060
627.80	0.060
628.00	0.060
628.19	0.060
628.38	0.060
628.57	0.060
628.76	0.060
628.96	0.060
629.15	0.060
629.34	0.060
629.53	0.060
629.72	0.060
629.91	0.060
630.11	0.060
630.30	0.060
630.49	0.060
630.68	0.060
630.87	0.060
631.06	0.060
631.26	0.060
631.45	0.060
631.64	0.060
631.83	0.060
632.02	0.060
632.21	0.060
632.41	0.060
632.60	0.060
632.79	0.060
632.98	0.060
633.17	0.060
633.36	0.060
633.55	0.060
633.75	0.060
633.94	0.060
634.13	0.060
634.32	0.060
634.51	0.060
634.70	0.060
634.89	0.060
635.09	0.060
635.28	0.060
635.47	0.060
635.66	0.060
635.85	0.060
636.04	0.060
636.23	0.060
636.43	0.060
636.62	0.060
636.81	0.060
637.00	0.060
637.19	0.060
637.38	0.060
637.57	0.060
637.76	0.060
637.95	0.060
638.15	0.060
638.34	0.060
638.53	0.060
638.72	0.060
638.91	0.060
639.10	0.060
639.29	0.060
639.48	0.060
639.67	0.060
639.87	0.060
640.06	0.060
640.25	0.060
640.44	0.060
640.63	0.060
640.82	0.060
641.01	0.060
641.20	0.060
641.39	0.060
641.58	0.060
641.78	0.060
641.97	0.060
642.16	0.060
642.35	0.060
642.54	0.060
642.73	0.060
642.92	0.060
643.11	0.060
643.30	0.060
643.49	0.060
643.68	0.060
643.87	0.060
644.06	0.060
644.25	0.060
644.45	0.060
644.64	0.060
644.83	0.060
645.02	0.060
645.21	0.060
645.40	0.060
645.59	0.059
645.78	0.059
645.97	0.059
646.16	0.059
646.35	0.059
646.54	0.059
646.73	0.059
646.92	0.059
647.11	0.059
647.30	0.058
647.49	0.058
647.68	0.059
647.88	0.058
648.07	0.058
648.26	0.059
648.45	0.059
648.64	0.059
648.83	0.058
649.02	0.059
649.21	0.059
649.40	0.059
649.59	0.059
649.78	0.059
649.97	0.059
650.16	0.059
650.35	0.059
650.54	0.059
650.73	0.060
650.92	0.060
651.11	0.060
651.30	0.060
651.49	0.060
651.68	0.060
651.87	0.060
652.06	0.060
652.25	0.059
652.44	0.059
652.63	0.058
652.82	0.056
653.01	0.055
653.20	0.055
653.39	0.054
653.58	0.054
653.77	0.053
653.96	0.053
654.15	0.053
654.34	0.053
654.53	0.053
654.72	0.054
654.91	0.054
655.10	0.055
655.29	0.055
655.48	0.056
655.67	0.056
655.86	0.056
656.05	0.056
656.24	0.056
656.43	0.056
656.62	0.056
656.81	0.057
657.00	0.058
657.19	0.059
657.38	0.060
657.57	0.060
657.76	0.061
657.95	0.061
658.14	0.062
658.33	0.062
658.51	0.063
658.70	0.063
658.89	0.063
659.08	0.062
659.27	0.061
659.46	0.061
659.65	0.061
659.84	0.060
660.03	0.060
660.22	0.060
660.41	0.060
660.60	0.060
660.79	0.060
660.98	0.060
661.17	0.060
661.36	0.060
661.55	0.059
661.74	0.059
661.92	0.059
662.11	0.059
662.30	0.059
662.49	0.059
662.68	0.059
662.87	0.059
663.06	0.059
663.25	0.059
663.44	0.058
663.63	0.059
663.82	0.059
664.01	0.059
664.20	0.059
664.38	0.059
664.57	0.059
664.76	0.059
664.95	0.059
665.14	0.059
665.33	0.059
665.52	0.059
665.71	0.059
665.90	0.059
666.09	0.059
666.28	0.059
666.46	0.059
666.65	0.059
666.84	0.059
667.03	0.059
667.22	0.059
667.41	0.058
667.60	0.058
667.79	0.058
667.98	0.058
668.16	0.058
668.35	0.058
668.54	0.058
668.73	0.058
668.92	0.058
669.11	0.058
669.30	0.058
669.49	0.058
669.67	0.058
669.86	0.058
670.05	0.058
670.24	0.058
670.43	0.058
670.62	0.058
670.81	0.058
671.00	0.057
671.18	0.058
671.37	0.057
671.56	0.057
671.75	0.057
671.94	0.057
672.13	0.057
672.32	0.057
672.50	0.058
672.69	0.058
672.88	0.058
673.07	0.058
673.26	0.058
673.45	0.058
673.63	0.058
673.82	0.058
674.01	0.058
674.20	0.059
674.39	0.059
674.58	0.059
674.76	0.058
674.95	0.058
675.14	0.058
675.33	0.058
675.52	0.058
675.71	0.058
675.89	0.058
676.08	0.058
676.27	0.058
676.46	0.058
676.65	0.058
676.84	0.058
677.02	0.058
677.21	0.058
677.40	0.058
677.59	0.058
677.78	0.058
677.96	0.058
678.15	0.058
678.34	0.058
678.53	0.058
678.72	0.058
678.90	0.058
679.09	0.058
679.28	0.058
679.47	0.058
679.66	0.058
679.84	0.058
680.03	0.058
680.22	0.058
680.41	0.058
680.60	0.058
680.78	0.058
680.97	0.058
681.16	0.058
681.35	0.058
681.53	0.058
681.72	0.058
681.91	0.058
682.10	0.057
682.29	0.057
682.47	0.057
682.66	0.057
682.85	0.057
683.04	0.057
683.22	0.057
683.41	0.057
683.60	0.057
683.79	0.057
683.97	0.057
684.16	0.057
684.35	0.057
684.54	0.057
684.72	0.057
684.91	0.057
685.10	0.057
685.29	0.057
685.47	0.057
685.66	0.057
685.85	0.057
686.04	0.057
686.22	0.057
686.41	0.057
686.60	0.057
686.79	0.057
686.97	0.057
687.16	0.057
687.35	0.057
687.54	0.057
687.72	0.058
687.91	0.058
688.10	0.057
688.29	0.057
688.47	0.057
688.66	0.057
688.85	0.057
689.03	0.057
689.22	0.057
689.41	0.057
689.60	0.057
689.78	0.057
689.97	0.057
690.16	0.057
690.34	0.057
690.53	0.057
690.72	0.057
690.91	0.057
691.09	0.057
691.28	0.057
691.47	0.057
691.65	0.057
691.84	0.057
692.03	0.057
692.21	0.057
692.40	0.057
692.59	0.057
692.77	0.057
692.96	0.057
693.15	0.057
693.34	0.057
693.52	0.057
693.71	0.057
693.90	0.057
694.08	0.057
694.27	0.057
694.46	0.057
694.64	0.057
694.83	0.057
695.02	0.057
695.20	0.057
695.39	0.057
695.58	0.056
695.76	0.056
695.95	0.056
696.14	0.056
696.32	0.056
696.51	0.056
696.70	0.056
696.88	0.056
697.07	0.056
697.26	0.056
697.44	0.056
697.63	0.057
697.81	0.057
698.00	0.057
698.19	0.057
698.37	0.057
698.56	0.057
698.75	0.057
698.93	0.057
699.12	0.058
699.31	0.057
699.49	0.057
699.68	0.057
699.87	0.057
700.05	0.057
700.24	0.057
700.42	0.057
700.61	0.057
700.80	0.057
700.98	0.057
701.17	0.057
701.36	0.057
701.54	0.057
701.73	0.057
701.91	0.057
702.10	0.057
702.29	0.057
702.47	0.057
702.66	0.057
702.84	0.057
703.03	0.057
703.22	0.057
703.40	0.057
703.59	0.057
703.77	0.057
703.96	0.057
704.15	0.057
704.33	0.057
704.52	0.057
704.70	0.057
704.89	0.057
705.08	0.056
705.26	0.056
705.45	0.056
705.63	0.056
705.82	0.056
706.00	0.056
706.19	0.056
706.38	0.056
706.56	0.056
706.75	0.056
706.93	0.056
707.12	0.056
707.30	0.056
707.49	0.056
707.68	0.056
707.86	0.056
708.05	0.056
708.23	0.056
708.42	0.056
708.60	0.056
708.79	0.056
708.98	0.056
709.16	0.056
709.35	0.056
709.53	0.056
709.72	0.056
709.90	0.056
710.09	0.057
710.27	0.057
710.46	0.057
710.64	0.057
710.83	0.057
711.02	0.057
711.20	0.057
711.39	0.056
711.57	0.056
711.76	0.057
711.94	0.056
712.13	0.056
712.31	0.056
712.50	0.056
712.68	0.056
712.87	0.056
713.05	0.056
713.24	0.056
713.42	0.056
713.61	0.056
713.79	0.056
713.98	0.056
714.16	0.056
714.35	0.056
714.54	0.056
714.72	0.056
714.91	0.056
715.09	0.056
715.28	0.056
715.46	0.056
715.65	0.056
715.83	0.056
716.02	0.056
716.20	0.056
716.39	0.056
716.57	0.056
716.76	0.056
716.94	0.056
717.12	0.055
717.31	0.056
717.49	0.055
717.68	0.055
717.86	0.055
718.05	0.055
718.23	0.055
718.42	0.055
718.60	0.055
718.79	0.055
718.97	0.055
719.16	0.055
719.34	0.055
719.53	0.055
719.71	0.055
719.90	0.055
720.08	0.055
720.27	0.055
720.45	0.055
720.63	0.055
720.82	0.055
721.00	0.055
721.19	0.055
721.37	0.055
721.56	0.055
721.74	0.056
721.93	0.056
722.11	0.056
722.30	0.056
722.48	0.056
722.66	0.056
722.85	0.056
723.03	0.056
723.22	0.056
723.40	0.055
723.59	0.055
723.77	0.055
723.95	0.055
724.14	0.055
724.32	0.055
724.51	0.055
724.69	0.055
724.88	0.054
725.06	0.055
725.24	0.055
725.43	0.055
725.61	0.054
725.80	0.054
725.98	0.054
726.16	0.054
726.35	0.053
726.53	0.054
726.72	0.054
726.90	0.054
727.09	0.054
727.27	0.054
727.45	0.054
727.64	0.054
727.82	0.054
728.01	0.054
728.19	0.054
728.37	0.054
728.56	0.054
728.74	0.054
728.92	0.054
729.11	0.054
729.29	0.054
729.48	0.054
729.66	0.054
729.84	0.054
730.03	0.054
730.21	0.053
730.40	0.053
730.58	0.053
730.76	0.053
730.95	0.053
731.13	0.053
731.31	0.052
731.50	0.052
731.68	0.052
731.86	0.053
732.05	0.053
732.23	0.052
732.42	0.052
732.60	0.052
732.78	0.052
732.97	0.051
733.15	0.051
733.33	0.051
733.52	0.051
733.70	0.051
733.88	0.051
734.07	0.051
734.25	0.050
734.43	0.051
734.62	0.050
734.80	0.050
734.98	0.050
735.17	0.050
735.35	0.049
735.53	0.049
735.72	0.049
735.90	0.049
736.08	0.049
736.27	0.049
736.45	0.049
736.63	0.049
736.82	0.050
737.00	0.050
737.18	0.050
737.37	0.050
737.55	0.050
737.73	0.050
737.92	0.050
738.10	0.049
738.28	0.049
738.46	0.049
738.65	0.049
738.83	0.049
739.01	0.049
739.20	0.049
739.38	0.049
739.56	0.050
739.75	0.050
739.93	0.050
740.11	0.050
740.29	0.050
740.48	0.051
740.66	0.050
740.84	0.050
741.03	0.050
741.21	0.051
741.39	0.051
741.57	0.051
741.76	0.051
741.94	0.050
742.12	0.050
742.31	0.050
742.49	0.049
742.67	0.050
742.85	0.049
743.04	0.048
743.22	0.048
743.40	0.048
743.58	0.048
743.77	0.047
743.95	0.048
744.13	0.048
744.31	0.048
744.50	0.048
744.68	0.048
744.86	0.048
745.04	0.048
745.23	0.047
745.41	0.047
745.59	0.047
745.77	0.047
745.96	0.047
746.14	0.047
746.32	0.047
746.50	0.047
746.69	0.048
746.87	0.048
747.05	0.048
747.23	0.048
747.42	0.049
747.60	0.049
747.78	0.049
747.96	0.049
748.14	0.050
748.33	0.050
748.51	0.050
748.69	0.050
748.87	0.050
749.06	0.051
749.24	0.051
749.42	0.051
749.60	0.051
749.78	0.051
749.97	0.051
750.15	0.051
750.33	0.051
750.51	0.051
750.69	0.051
750.88	0.050
751.06	0.051
751.24	0.051
751.42	0.051
751.60	0.050
751.79	0.051
751.97	0.051
752.15	0.050
752.33	0.049
752.51	0.049
752.69	0.049
752.88	0.050
753.06	0.050
753.24	0.050
753.42	0.050
753.60	0.051
753.78	0.051
753.97	0.050
754.15	0.051
754.33	0.051
754.51	0.050
754.69	0.049
754.87	0.049
755.06	0.048
755.24	0.048
755.42	0.048
755.60	0.048
755.78	0.047
755.96	0.048
756.15	0.048
756.33	0.047
756.51	0.048
756.69	0.049
756.87	0.049
757.05	0.049
757.23	0.049
757.42	0.049
757.60	0.049
757.78	0.049
757.96	0.048
758.14	0.049
758.32	0.049
758.50	0.049
758.69	0.049
758.87	0.049
759.05	0.050
759.23	0.050
759.41	0.051
759.59	0.050
759.77	0.051
759.95	0.052
760.13	0.052
760.32	0.051
760.50	0.052
760.68	0.051
760.86	0.051
761.04	0.051
761.22	0.051
761.40	0.051
761.58	0.051
761.76	0.051
761.95	0.050
762.13	0.050
762.31	0.050
762.49	0.051
762.67	0.051
762.85	0.051
763.03	0.050
763.21	0.050
763.39	0.050
763.57	0.051
763.75	0.050
763.94	0.050
764.12	0.050
764.30	0.049
764.48	0.049
764.66	0.049
764.84	0.048
765.02	0.049
765.20	0.049
765.38	0.049
765.56	0.049
765.74	0.049
765.92	0.049
766.10	0.050
766.28	0.050
766.46	0.050
766.65	0.050
766.83	0.050
767.01	0.050
767.19	0.050
767.37	0.050
767.55	0.051
767.73	0.051
767.91	0.050
768.09	0.050
768.27	0.050
768.45	0.049
768.63	0.049
768.81	0.049
768.99	0.049
769.17	0.049
769.35	0.050
769.53	0.049
769.71	0.049
769.89	0.050
770.07	0.050
770.25	0.050
770.43	0.051
770.61	0.051
770.79	0.052
770.97	0.052
771.15	0.052
771.33	0.052
771.51	0.052
771.69	0.052
771.87	0.052
772.05	0.052
772.24	0.052
772.42	0.051
772.60	0.052
772.78	0.052
772.96	0.053
773.14	0.052
773.32	0.052
773.49	0.051
773.67	0.052
773.85	0.052
774.03	0.052
774.21	0.052
774.39	0.052
774.57	0.051
774.75	0.051
774.93	0.051
775.11	0.051
775.29	0.051
775.47	0.051
775.65	0.051
775.83	0.051
776.01	0.050
776.19	0.050
776.37	0.050
776.55	0.050
776.73	0.050
776.91	0.050
777.09	0.050
777.27	0.050
777.45	0.051
777.63	0.051
777.81	0.051
777.99	0.052
778.17	0.052
778.35	0.052
778.53	0.052
778.71	0.053
778.89	0.052
779.07	0.052
779.24	0.052
779.42	0.051
779.60	0.051
779.78	0.051
779.96	0.051
780.14	0.050
780.32	0.050
780.50	0.050
780.68	0.049
780.86	0.049
781.04	0.050
781.22	0.050
781.40	0.051
781.58	0.051
781.75	0.051
781.93	0.052
782.11	0.052
782.29	0.053
782.47	0.053
782.65	0.054
782.83	0.054
783.01	0.054
783.19	0.054
783.37	0.054
783.55	0.053
783.72	0.053
783.90	0.053
784.08	0.053
784.26	0.052
784.44	0.052
784.62	0.051
784.80	0.051
784.98	0.051
785.16	0.052
785.33	0.051
785.51	0.052
785.69	0.052
785.87	0.051
786.05	0.051
786.23	0.051
786.41	0.051
786.59	0.051
786.77	0.051
786.94	0.050
787.12	0.050
787.30	0.050
787.48	0.050
787.66	0.050
787.84	0.050
788.02	0.050
788.19	0.050
788.37	0.051
788.55	0.051
788.73	0.051
788.91	0.052
789.09	0.051
789.27	0.051
789.44	0.052
789.62	0.052
789.80	0.052
789.98	0.052
790.16	0.052
790.34	0.051
790.51	0.051
790.69	0.051
790.87	0.052
791.05	0.052
791.23	0.052
791.41	0.052
791.58	0.052
791.76	0.052
791.94	0.052
792.12	0.052
792.30	0.052
792.48	0.052
792.65	0.053
792.83	0.052
793.01	0.052
793.19	0.052
793.37	0.051
793.54	0.051
793.72	0.051
793.90	0.052
794.08	0.052
794.26	0.052
794.43	0.053
794.61	0.053
794.79	0.053
794.97	0.053
795.15	0.053
795.32	0.054
795.50	0.054
795.68	0.054
795.86	0.054
796.04	0.054
796.21	0.054
796.39	0.054
796.57	0.054
796.75	0.054
796.92	0.054
797.10	0.054
797.28	0.054
797.46	0.054
797.64	0.053
797.81	0.053
797.99	0.052
798.17	0.052
798.35	0.053
798.52	0.052
798.70	0.052
798.88	0.052
799.06	0.052
799.23	0.052
799.41	0.052
799.59	0.052
799.77	0.052
799.94	0.053
800.12	0.053
800.30	0.052
800.48	0.052
800.65	0.052
800.83	0.051
801.01	0.052
801.19	0.052
801.36	0.052
801.54	0.052
801.72	0.052
801.90	0.051
802.07	0.051
802.25	0.052
802.43	0.052
802.60	0.052
802.78	0.053
802.96	0.052
803.14	0.052
803.31	0.052
803.49	0.052
803.67	0.052
803.84	0.052
804.02	0.052
804.20	0.053
804.38	0.053
804.55	0.053
804.73	0.053
804.91	0.053
805.08	0.053
805.26	0.053
805.44	0.053
805.61	0.053
805.79	0.054
805.97	0.053
806.15	0.053
806.32	0.053
806.50	0.052
806.68	0.052
806.85	0.052
807.03	0.052
807.21	0.052
807.38	0.052
807.56	0.052
807.74	0.052
807.91	0.052
808.09	0.052
808.27	0.052
808.44	0.052
808.62	0.052
808.80	0.052
808.97	0.052
809.15	0.053
809.33	0.053
809.50	0.053
809.68	0.053
809.86	0.053
810.03	0.053
810.21	0.053
810.39	0.053
810.56	0.053
810.74	0.053
810.91	0.052
811.09	0.052
811.27	0.052
811.44	0.052
811.62	0.051
811.80	0.051
811.97	0.051
812.15	0.051
812.33	0.052
812.50	0.052
812.68	0.051
812.85	0.052
813.03	0.052
813.21	0.052
813.38	0.051
813.56	0.051
813.74	0.052
813.91	0.051
814.09	0.051
814.26	0.051
814.44	0.051
814.62	0.051
814.79	0.051
814.97	0.051
815.14	0.051
815.32	0.050
815.50	0.050
815.67	0.050
815.85	0.051
816.02	0.051
816.20	0.051
816.38	0.052
816.55	0.052
816.73	0.052
816.90	0.051
817.08	0.051
817.26	0.051
817.43	0.052
817.61	0.052
817.78	0.052
817.96	0.052
818.13	0.052
818.31	0.052
818.49	0.052
818.66	0.052
818.84	0.052
819.01	0.052
819.19	0.052
819.36	0.053
819.54	0.052
819.71	0.052
819.89	0.052
820.07	0.052
820.24	0.051
820.42	0.051
820.59	0.051
820.77	0.051
820.94	0.052
821.12	0.052
821.29	0.051
821.47	0.051
821.64	0.052
821.82	0.052
822.00	0.052
822.17	0.052
822.35	0.051
822.52	0.051
822.70	0.051
822.87	0.051
823.05	0.050
823.22	0.050
823.40	0.049
823.57	0.049
823.75	0.049
823.92	0.049
824.10	0.049
824.27	0.049
824.45	0.049
824.62	0.049
824.80	0.049
824.97	0.049
825.15	0.048
825.32	0.049
825.50	0.049
825.67	0.050
825.85	0.050
826.02	0.050
826.20	0.050
826.37	0.050
826.55	0.050
826.72	0.051
826.90	0.052
827.07	0.052
827.25	0.052
827.42	0.052
827.60	0.052
827.77	0.052
827.95	0.052
828.12	0.053
828.30	0.053
828.47	0.053
828.65	0.053
828.82	0.053
829.00	0.053
829.17	0.053
829.34	0.053
829.52	0.053
829.69	0.053
829.87	0.053
830.04	0.053
830.22	0.053
830.39	0.053
830.57	0.053
830.74	0.053
830.92	0.052
831.09	0.052
831.26	0.052
831.44	0.053
831.61	0.054
831.79	0.054
831.96	0.053
832.14	0.053
832.31	0.052
832.49	0.051
832.66	0.050
832.83	0.051
833.01	0.050
833.18	0.050
833.36	0.049
833.53	0.049
833.70	0.047
833.88	0.047
834.05	0.046
834.23	0.047
834.40	0.047
834.58	0.047
834.75	0.046
834.92	0.046
835.10	0.046
835.27	0.044
835.45	0.043
835.62	0.044
835.79	0.044
835.97	0.045
836.14	0.045
836.32	0.045
836.49	0.046
836.66	0.046
836.84	0.044
837.01	0.043
837.18	0.045
837.36	0.043
837.53	0.043
837.71	0.041
837.88	0.041
838.05	0.039
838.23	0.039
838.40	0.040
838.58	0.038
838.75	0.038
838.92	0.038
839.10	0.038
839.27	0.039
839.44	0.039
839.62	0.041
839.79	0.042
839.96	0.045
840.14	0.045
840.31	0.045
840.48	0.048
840.66	0.051
840.83	0.051
841.01	0.050
841.18	0.051
841.35	0.050
841.53	0.047
841.70	0.047
841.87	0.045
842.05	0.044
842.22	0.043
842.39	0.043
842.57	0.041
842.74	0.043
842.91	0.045
843.09	0.045
843.26	0.047
843.43	0.050
843.60	0.051
843.78	0.052
843.95	0.051
844.12	0.051
844.30	0.051
844.47	0.050
844.64	0.051
844.82	0.049
844.99	0.048
845.16	0.046
845.34	0.043
845.51	0.044
845.68	0.045
845.85	0.046
846.03	0.046
846.20	0.045
846.37	0.046
846.55	0.046
846.72	0.049
846.89	0.048
847.06	0.048
847.24	0.051
847.41	0.048
847.58	0.047
847.76	0.050
847.93	0.048
848.10	0.048
848.27	0.046
848.45	0.047
848.62	0.045
848.79	0.043
848.97	0.042
849.14	0.040
849.31	0.043
849.48	0.041
849.66	0.040
849.83	0.040
850.00	0.041
850.17	0.039
850.35	0.035
850.52	0.034
850.69	0.038
850.86	0.039
851.04	0.040
851.21	0.038
851.38	0.035
851.55	0.033
851.72	0.035
851.90	0.036
852.07	0.037
852.24	0.039
852.41	0.040
852.59	0.039
852.76	0.039
852.93	0.040
853.10	0.043
853.28	0.043
853.45	0.043
853.62	0.041
853.79	0.041
853.96	0.042
854.14	0.044
854.31	0.044
854.48	0.044
854.65	0.045
854.82	0.046
855.00	0.044
855.17	0.047
855.34	0.049
855.51	0.051
855.68	0.050
855.86	0.051
856.03	0.050
856.20	0.046
856.37	0.044
856.54	0.041
856.72	0.039
856.89	0.037
857.06	0.038
857.23	0.042
857.40	0.040
857.57	0.040
857.75	0.042
857.92	0.045
858.09	0.048
858.26	0.052
858.43	0.051
858.60	0.052
858.78	0.057
858.95	0.056
859.12	0.053
859.29	0.052
859.46	0.052
859.63	0.054
859.81	0.053
859.98	0.051
860.15	0.047
860.32	0.052
860.49	0.049
860.66	0.047
860.83	0.048
861.01	0.045
861.18	0.046
861.35	0.045
861.52	0.043
861.69	0.040
861.86	0.044
862.03	0.048
862.21	0.048
862.38	0.048
862.55	0.046
862.72	0.046
862.89	0.046
863.06	0.046
863.23	0.046
863.40	0.042
863.58	0.043
863.75	0.039
863.92	0.034
864.09	0.032
864.26	0.032
864.43	0.030
864.60	0.032
864.77	0.033
864.94	0.037
865.11	0.036
865.29	0.037
865.46	0.037
865.63	0.038
865.80	0.038
865.97	0.041
866.14	0.044
866.31	0.043
866.48	0.039
866.65	0.040
866.82	0.039
866.99	0.039
867.16	0.037
867.34	0.037
867.51	0.044
867.68	0.046
867.85	0.041
868.02	0.038
868.19	0.041
868.36	0.043
868.53	0.043
868.70	0.042
868.87	0.038
869.04	0.043
869.21	0.047
869.38	0.043
869.55	0.044
869.72	0.043
869.89	0.050
870.06	0.049
870.24	0.049
870.41	0.044
870.58	0.040
870.75	0.046
870.92	0.049
871.09	0.049
871.26	0.050
871.43	0.051
871.60	0.054
871.77	0.047
871.94	0.048
872.11	0.047
872.28	0.051
872.45	0.055
872.62	0.055
872.79	0.050
872.96	0.048
873.13	0.045
873.30	0.043
873.47	0.043
873.64	0.045
873.81	0.045
873.98	0.046
874.15	0.052
874.32	0.042
874.49	0.042
874.66	0.039
874.83	0.038
875.00	0.035
875.17	0.035
875.34	0.033
875.51	0.039
875.68	0.040
875.85	0.038
876.02	0.033
876.19	0.038
876.36	0.040
876.53	0.044
876.70	0.047
876.87	0.052
877.04	0.046
877.21	0.046
877.38	0.039
877.55	0.045
877.72	0.047
877.89	0.046
878.06	0.038
878.23	0.035
878.39	0.031
878.56	0.033
878.73	0.030
878.90	0.034
879.07	0.032
879.24	0.034
879.41	0.029
879.58	0.027
879.75	0.027
879.92	0.035
880.09	0.032
880.26	0.034
880.43	0.029
880.60	0.028
880.77	0.031
880.94	0.032
881.11	0.032
881.27	0.034
881.44	0.031
881.61	0.033
881.78	0.031
881.95	0.031
882.12	0.030
882.29	0.031
882.46	0.035
882.63	0.039
882.80	0.044
882.97	0.042
883.14	0.033
883.30	0.033
883.47	0.032
883.64	0.029
883.81	0.035
883.98	0.033
884.15	0.035
884.32	0.034
884.49	0.035
884.66	0.031
884.82	0.035
884.99	0.036
885.16	0.042
885.33	0.042
885.50	0.044
885.67	0.047
885.84	0.057
886.01	0.051
886.17	0.049
886.34	0.046
886.51	0.053
886.68	0.058
886.85	0.068
887.02	0.070
887.19	0.069
887.36	0.070
887.52	0.067
887.69	0.071
887.86	0.078
888.03	0.082
888.20	0.083
888.37	0.071
888.54	0.059
888.70	0.057
888.87	0.059
889.04	0.062
889.21	0.059
889.38	0.057
889.55	0.046
889.71	0.110
889.88	0.008
890.05	-0.037
890.22	0.071
890.39	0.025
>>>>>End Processed Spectral Data<<<<<
